File: KHU_project/Photoelectron_Spectroscopy/XPS_Analysis/DNN/GaN.txt
286.69	1200	110730	5.684839
287.69	1199	112220	5.689028
288.69	1198	112590	5.693218
289.69	1197	112600	5.697407
290.69	1196	113970	5.701597
291.69	1195	113910	5.705786
292.69	1194	115060	5.709976
293.69	1193	116090	5.714165
294.69	1192	113380	5.718355
295.69	1191	113660	5.722545
296.69	1190	115140	5.726734
297.69	1189	112940	5.730924
298.69	1188	114200	5.735113
299.69	1187	116120	5.739303
300.69	1186	116970	5.743492
301.69	1185	116780	5.747682
302.69	1184	118630	5.751871
303.69	1183	116990	5.756061
304.69	1182	115020	5.760250
305.69	1181	115460	5.764440
306.69	1180	117080	5.768630
307.69	1179	117910	5.772819
308.69	1178	116160	5.777009
309.69	1177	116760	5.781198
310.69	1176	117150	5.785388
311.69	1175	116650	5.789577
312.69	1174	117470	5.793767
313.69	1173	119400	5.797956
314.69	1172	120220	5.802146
315.69	1171	119640	5.806335
316.69	1170	121940	5.810525
317.69	1169	122950	5.814715
318.69	1168	125050	5.818904
319.69	1167	126140	5.823094
320.69	1166	126790	5.827283
321.69	1165	128850	5.831473
322.69	1164	130070	5.835662
323.69	1163	128470	5.839852
324.69	1162	126170	5.844041
325.69	1161	125020	5.848231
326.69	1160	123820	5.852421
327.69	1159	121290	5.856610
328.69	1158	119880	5.861690
329.69	1157	119110	5.867871
330.69	1156	116460	5.874052
331.69	1155	114200	5.880232
332.69	1154	112080	5.886413
333.69	1153	111790	5.892594
334.69	1152	109750	5.898775
335.69	1151	110030	5.904956
336.69	1150	109190	5.911137
337.69	1149	115890	5.917318
338.69	1148	121900	5.923499
339.69	1147	148990	5.929680
340.69	1146	221000	5.935860
341.69	1145	276030	5.942041
342.69	1144	222430	5.948222
343.69	1143	147400	5.954403
344.69	1142	125030	5.960584
345.69	1141	123310	5.966765
346.69	1140	119150	5.972946
347.69	1139	120540	5.979127
348.69	1138	121590	5.985308
349.69	1137	119430	5.991488
350.69	1136	116820	5.997669
351.69	1135	113530	6.003850
352.69	1134	109750	6.010031
353.69	1133	104710	6.016212
354.69	1132	102040	6.022393
355.69	1131	98560	6.028574
356.69	1130	92850	6.034755
357.69	1129	89180	6.040936
358.69	1128	84980	6.047116
359.69	1127	83940	6.053297
360.69	1126	82390	6.059478
361.69	1125	79450	6.065659
362.69	1124	77270	6.071840
363.69	1123	79460	6.078021
364.69	1122	84320	6.084202
365.69	1121	100990	6.090383
366.69	1120	165370	6.096563
367.69	1119	324890	6.102744
368.69	1118	409290	6.108925
369.69	1117	276000	6.115106
370.69	1116	128810	6.121287
371.69	1115	85900	6.127468
372.69	1114	75800	6.133649
373.69	1113	71090	6.139830
374.69	1112	67570	6.146011
375.69	1111	64670	6.152191
376.69	1110	65060	6.158372
377.69	1109	65210	6.164553
378.69	1108	65760	6.170734
379.69	1107	66710	6.176915
380.69	1106	65890	6.183096
381.69	1105	66090	6.189277
382.69	1104	65160	6.195458
383.69	1103	63430	6.201639
384.69	1102	64890	6.207819
385.69	1101	63470	6.214000
386.69	1100	63540	6.220181
387.69	1099	63360	6.226362
388.69	1098	61570	6.232543
389.69	1097	60480	6.238724
390.69	1096	60030	6.244905
391.69	1095	60190	6.251086
392.69	1094	61030	6.257267
393.69	1093	61140	6.263447
394.69	1092	59840	6.269628
395.69	1091	59060	6.275809
396.69	1090	60700	6.281990
397.69	1089	61000	6.288171
398.69	1088	60440	6.294352
399.69	1087	60660	6.300533
400.69	1086	62060	6.306714
401.69	1085	61320	6.312895
402.69	1084	61440	6.319075
403.69	1083	61850	6.325256
404.69	1082	61850	6.331437
405.69	1081	63370	6.337618
406.69	1080	62420	6.343799
407.69	1079	62050	6.349980
408.69	1078	61830	6.356161
409.69	1077	61350	6.362342
410.69	1076	62380	6.368523
411.69	1075	62040	6.374703
412.69	1074	62850	6.380884
413.69	1073	63210	6.387065
414.69	1072	62440	6.393246
415.69	1071	62530	6.399427
416.69	1070	62890	6.405608
417.69	1069	63530	6.411789
418.69	1068	63570	6.417970
419.69	1067	63210	6.424151
420.69	1066	63380	6.430331
421.69	1065	64840	6.436512
422.69	1064	66130	6.442693
423.69	1063	64810	6.448874
424.69	1062	64430	6.455055
425.69	1061	65360	6.461236
426.69	1060	66120	6.467417
427.69	1059	65240	6.473598
428.69	1058	64510	6.479779
429.69	1057	64130	6.485959
430.69	1056	65160	6.492140
431.69	1055	65130	6.498321
432.69	1054	65230	6.504502
433.69	1053	65960	6.510683
434.69	1052	65890	6.516864
435.69	1051	65640	6.523045
436.69	1050	65270	6.529226
437.69	1049	66290	6.535407
438.69	1048	66780	6.541587
439.69	1047	67550	6.547768
440.69	1046	67470	6.553949
441.69	1045	67780	6.560130
442.69	1044	68350	6.566311
443.69	1043	68030	6.572492
444.69	1042	67920	6.578673
445.69	1041	68210	6.584854
446.69	1040	68900	6.591035
447.69	1039	69490	6.597215
448.69	1038	68670	6.603396
449.69	1037	69770	6.609577
450.69	1036	69770	6.615758
451.69	1035	70980	6.621939
452.69	1034	69990	6.628120
453.69	1033	70080	6.634301
454.69	1032	70420	6.640482
455.69	1031	68690	6.646663
456.69	1030	68830	6.652792
457.69	1029	70090	6.658895
458.69	1028	71370	6.664998
459.69	1027	71090	6.671101
460.69	1026	70040	6.677204
461.69	1025	71810	6.683308
462.69	1024	71030	6.689411
463.69	1023	71840	6.695514
464.69	1022	72250	6.701617
465.69	1021	72670	6.707720
466.69	1020	72450	6.713823
467.69	1019	73870	6.719926
468.69	1018	73030	6.726029
469.69	1017	72610	6.732132
470.69	1016	73840	6.738235
471.69	1015	74800	6.744339
472.69	1014	73650	6.750442
473.69	1013	74060	6.756545
474.69	1012	74340	6.762648
475.69	1011	74860	6.768751
476.69	1010	75500	6.774854
477.69	1009	76470	6.780957
478.69	1008	75400	6.787060
479.69	1007	75590	6.793163
480.69	1006	75450	6.799266
481.69	1005	75550	6.805370
482.69	1004	76530	6.811473
483.69	1003	77820	6.817576
484.69	1002	77940	6.823679
485.69	1001	79300	6.829782
486.69	1000	80500	6.835885
487.69	999	81440	6.841988
488.69	998	82470	6.848091
489.69	997	81000	6.854194
490.69	996	80200	6.860297
491.69	995	79990	6.866401
492.69	994	77900	6.872504
493.69	993	77730	6.878607
494.69	992	79730	6.884710
495.69	991	78390	6.890813
496.69	990	77670	6.896916
497.69	989	77850	6.903019
498.69	988	78280	6.909122
499.69	987	77570	6.915225
500.69	986	77950	6.921328
501.69	985	76730	6.927432
502.69	984	78890	6.933535
503.69	983	81480	6.939638
504.69	982	81830	6.945741
505.69	981	84040	6.951844
506.69	980	87330	6.957947
507.69	979	89040	6.964050
508.69	978	91870	6.970153
509.69	977	92930	6.976256
510.69	976	91480	6.982359
511.69	975	91160	6.988463
512.69	974	86500	6.994566
513.69	973	84070	7.000669
514.69	972	82380	7.006772
515.69	971	80290	7.012875
516.69	970	79180	7.018978
517.69	969	76870	7.025081
518.69	968	75720	7.031184
519.69	967	75580	7.037287
520.69	966	73660	7.043390
521.69	965	72780	7.049494
522.69	964	72000	7.055597
523.69	963	72610	7.061700
524.69	962	71980	7.067803
525.69	961	72920	7.073906
526.69	960	73450	7.080009
527.69	959	72880	7.086112
528.69	958	71490	7.092215
529.69	957	73070	7.098318
530.69	956	73420	7.104421
531.69	955	73500	7.110525
532.69	954	73560	7.116628
533.69	953	72010	7.122731
534.69	952	72200	7.128834
535.69	951	73330	7.134937
536.69	950	73540	7.141040
537.69	949	74370	7.147143
538.69	948	73530	7.153246
539.69	947	73520	7.159349
540.69	946	74680	7.165452
541.69	945	74320	7.171556
542.69	944	74700	7.177659
543.69	943	75790	7.183762
544.69	942	75130	7.189865
545.69	941	75340	7.195968
546.69	940	76390	7.202071
547.69	939	75350	7.208174
548.69	938	75040	7.214277
549.69	937	75320	7.220380
550.69	936	75080	7.226483
551.69	935	76810	7.232587
552.69	934	77420	7.238690
553.69	933	77580	7.244793
554.69	932	77400	7.250896
555.69	931	77410	7.256999
556.69	930	77460	7.263102
557.69	929	76920	7.269205
558.69	928	77730	7.275308
559.69	927	77900	7.281411
560.69	926	77860	7.287514
561.69	925	76820	7.293618
562.69	924	78300	7.299721
563.69	923	77650	7.305824
564.69	922	78180	7.311927
565.69	921	77580	7.318030
566.69	920	78420	7.324133
567.69	919	77810	7.330236
568.69	918	79180	7.336339
569.69	917	80150	7.342442
570.69	916	78310	7.348545
571.69	915	78270	7.354649
572.69	914	77890	7.360752
573.69	913	78600	7.366855
574.69	912	79800	7.372958
575.69	911	79390	7.379061
576.69	910	79650	7.385164
577.69	909	79290	7.391267
578.69	908	79310	7.397370
579.69	907	78840	7.403473
580.69	906	80700	7.409576
581.69	905	80650	7.415680
582.69	904	80680	7.421783
583.69	903	80590	7.427886
584.69	902	81250	7.433989
585.69	901	81110	7.440092
586.69	900	82140	7.446195
587.69	899	81790	7.452298
588.69	898	82300	7.458401
589.69	897	81990	7.464504
590.69	896	81900	7.470607
591.69	895	82340	7.476711
592.69	894	81700	7.482814
593.69	893	82010	7.488917
594.69	892	83560	7.495020
595.69	891	82980	7.501123
596.69	890	82640	7.507226
597.69	889	81970	7.513329
598.69	888	81860	7.519432
599.69	887	82660	7.525535
600.69	886	84670	7.531639
601.69	885	85260	7.537742
602.69	884	83980	7.543845
603.69	883	85260	7.549948
604.69	882	85180	7.556051
605.69	881	84380	7.562154
606.69	880	84670	7.568257
607.69	879	84530	7.574360
608.69	878	83280	7.580463
609.69	877	84540	7.586566
610.69	876	84640	7.592670
611.69	875	86170	7.598773
612.69	874	86090	7.604876
613.69	873	84610	7.610979
614.69	872	84710	7.617082
615.69	871	85260	7.623185
616.69	870	86320	7.629288
617.69	869	85140	7.635391
618.69	868	86340	7.641494
619.69	867	86320	7.647597
620.69	866	87330	7.653701
621.69	865	87340	7.659804
622.69	864	87180	7.665907
623.69	863	86570	7.672010
624.69	862	86490	7.678113
625.69	861	87310	7.684216
626.69	860	89720	7.690319
627.69	859	87930	7.696422
628.69	858	87980	7.702525
629.69	857	88720	7.708628
630.69	856	88510	7.714732
631.69	855	89830	7.720835
632.69	854	89280	7.726938
633.69	853	88730	7.733041
634.69	852	89180	7.739144
635.69	851	90540	7.745247
636.69	850	89850	7.751350
637.69	849	89860	7.757453
638.69	848	90830	7.763556
639.69	847	90520	7.769659
640.69	846	90700	7.775763
641.69	845	91110	7.781866
642.69	844	91060	7.787969
643.69	843	91310	7.794072
644.69	842	91270	7.800175
645.69	841	91010	7.806278
646.69	840	90850	7.812381
647.69	839	92060	7.818484
648.69	838	91880	7.824587
649.69	837	91310	7.830690
650.69	836	91950	7.836794
651.69	835	92070	7.842897
652.69	834	92900	7.849000
653.69	833	93210	7.855103
654.69	832	93030	7.861206
655.69	831	93760	7.867309
656.69	830	93010	7.873412
657.69	829	93870	7.879515
658.69	828	93340	7.885618
659.69	827	94410	7.891721
660.69	826	94120	7.897825
661.69	825	93360	7.903928
662.69	824	94550	7.910031
663.69	823	94050	7.916134
664.69	822	95970	7.922237
665.69	821	95360	7.926931
666.69	820	96340	7.931169
667.69	819	95820	7.935407
668.69	818	95290	7.939645
669.69	817	95400	7.943883
670.69	816	95070	7.948121
671.69	815	96410	7.952358
672.69	814	95890	7.956596
673.69	813	95720	7.960834
674.69	812	97010	7.965072
675.69	811	94710	7.969310
676.69	810	96120	7.973548
677.69	809	96630	7.977786
678.69	808	96600	7.982024
679.69	807	97160	7.986262
680.69	806	97470	7.990500
681.69	805	97460	7.994738
682.69	804	97770	7.998976
683.69	803	99040	8.003214
684.69	802	97360	8.007451
685.69	801	97680	8.011689
686.69	800	98870	8.015927
687.69	799	99950	8.020165
688.69	798	100180	8.024403
689.69	797	99660	8.028641
690.69	796	100350	8.032879
691.69	795	101650	8.037117
692.69	794	100380	8.041355
693.69	793	100630	8.045593
694.69	792	101250	8.049831
695.69	791	101070	8.054069
696.69	790	100070	8.058307
697.69	789	101640	8.062544
698.69	788	100360	8.066782
699.69	787	101790	8.071020
700.69	786	101890	8.075258
701.69	785	104210	8.079496
702.69	784	102200	8.083734
703.69	783	103410	8.087972
704.69	782	103160	8.092210
705.69	781	103710	8.096448
706.69	780	103850	8.100686
707.69	779	102860	8.104924
708.69	778	102650	8.109162
709.69	777	104830	8.113400
710.69	776	102830	8.117637
711.69	775	103920	8.121875
712.69	774	106840	8.126113
713.69	773	106010	8.130351
714.69	772	108160	8.134589
715.69	771	106940	8.138827
716.69	770	106270	8.143065
717.69	769	106800	8.147303
718.69	768	105650	8.151541
719.69	767	106840	8.155779
720.69	766	107380	8.160017
721.69	765	108260	8.164255
722.69	764	106900	8.168493
723.69	763	106850	8.172730
724.69	762	108170	8.176968
725.69	761	108330	8.181206
726.69	760	108950	8.185444
727.69	759	109160	8.189682
728.69	758	108920	8.193920
729.69	757	109210	8.198158
730.69	756	109400	8.202396
731.69	755	111570	8.206634
732.69	754	109530	8.210872
733.69	753	109640	8.215110
734.69	752	110480	8.219348
735.69	751	110790	8.223586
736.69	750	110570	8.227823
737.69	749	110560	8.232061
738.69	748	110130	8.236299
739.69	747	111170	8.240537
740.69	746	113080	8.244775
741.69	745	114100	8.249013
742.69	744	111900	8.253251
743.69	743	112930	8.257489
744.69	742	113170	8.261727
745.69	741	113190	8.265965
746.69	740	113270	8.270203
747.69	739	114020	8.274441
748.69	738	113880	8.278679
749.69	737	114760	8.282917
750.69	736	115110	8.287154
751.69	735	114640	8.291392
752.69	734	116790	8.295630
753.69	733	115290	8.299868
754.69	732	116210	8.304106
755.69	731	115380	8.308344
756.69	730	115940	8.312582
757.69	729	116370	8.316820
758.69	728	116890	8.321058
759.69	727	118900	8.325296
760.69	726	118210	8.329534
761.69	725	116880	8.333772
762.69	724	118070	8.338010
763.69	723	120090	8.342247
764.69	722	119970	8.346485
765.69	721	119180	8.350723
766.69	720	121390	8.354961
767.69	719	121040	8.359199
768.69	718	119450	8.363437
769.69	717	119720	8.367675
770.69	716	120900	8.371913
771.69	715	122220	8.376151
772.69	714	122320	8.380389
773.69	713	122890	8.384627
774.69	712	125210	8.388865
775.69	711	121850	8.393103
776.69	710	124210	8.397340
777.69	709	124600	8.401578
778.69	708	123840	8.405816
779.69	707	125430	8.410054
780.69	706	124200	8.414292
781.69	705	126190	8.418530
782.69	704	124840	8.422768
783.69	703	124850	8.427006
784.69	702	125480	8.431244
785.69	701	125020	8.435482
786.69	700	125710	8.439720
787.69	699	124810	8.443958
788.69	698	126390	8.448196
789.69	697	127510	8.452433
790.69	696	127520	8.456671
791.69	695	128040	8.460909
792.69	694	128910	8.465147
793.69	693	128850	8.469385
794.69	692	130800	8.473623
795.69	691	130890	8.477861
796.69	690	130350	8.482099
797.69	689	130060	8.486337
798.69	688	130050	8.490575
799.69	687	132470	8.494813
800.69	686	132800	8.499051
801.69	685	133030	8.503289
802.69	684	131530	8.507526
803.69	683	132470	8.511764
804.69	682	133250	8.516002
805.69	681	134600	8.520240
806.69	680	135500	8.524478
807.69	679	134740	8.528716
808.69	678	135720	8.532954
809.69	677	134200	8.537192
810.69	676	133960	8.541430
811.69	675	136050	8.545668
812.69	674	137100	8.549906
813.69	673	136510	8.554144
814.69	672	137770	8.558382
815.69	671	137790	8.562620
816.69	670	138760	8.566857
817.69	669	138300	8.571095
818.69	668	140080	8.575333
819.69	667	139910	8.579571
820.69	666	140430	8.583809
821.69	665	139410	8.588047
822.69	664	141230	8.592285
823.69	663	144310	8.596523
824.69	662	144770	8.600761
825.69	661	146350	8.604999
826.69	660	147310	8.609237
827.69	659	146700	8.613475
828.69	658	146830	8.617713
829.69	657	143820	8.621950
830.69	656	144840	8.626188
831.69	655	143400	8.630426
832.69	654	144060	8.634664
833.69	653	145440	8.638902
834.69	652	143400	8.643140
835.69	651	145390	8.647378
836.69	650	146100	8.651616
837.69	649	149010	8.655854
838.69	648	149180	8.660092
839.69	647	148390	8.664330
840.69	646	153000	8.668568
841.69	645	154030	8.672806
842.69	644	154030	8.677043
843.69	643	152320	8.681281
844.69	642	152060	8.685519
845.69	641	149220	8.689757
846.69	640	148160	8.693995
847.69	639	148990	8.698233
848.69	638	149800	8.702471
849.69	637	149140	8.706709
850.69	636	149120	8.710947
851.69	635	151580	8.715185
852.69	634	152940	8.719423
853.69	633	154550	8.723661
854.69	632	154530	8.727899
855.69	631	153710	8.732136
856.69	630	152800	8.736374
857.69	629	151960	8.740612
858.69	628	153040	8.744850
859.69	627	154320	8.749088
860.69	626	155420	8.753326
861.69	625	154260	8.757564
862.69	624	154210	8.761802
863.69	623	158940	8.766040
864.69	622	159750	8.770278
865.69	621	159710	8.774516
866.69	620	158930	8.778754
867.69	619	158980	8.782992
868.69	618	158770	8.787229
869.69	617	159120	8.791467
870.69	616	158390	8.795705
871.69	615	161200	8.799943
872.69	614	160680	8.804181
873.69	613	160550	8.808419
874.69	612	161660	8.812657
875.69	611	159280	8.816895
876.69	610	161910	8.821133
877.69	609	163780	8.825371
878.69	608	163360	8.829609
879.69	607	162340	8.833847
880.69	606	164910	8.838085
881.69	605	168330	8.842323
882.69	604	168440	8.846560
883.69	603	174940	8.850798
884.69	602	176100	8.855036
885.69	601	176160	8.859274
886.69	600	174850	8.863512
887.69	599	173310	8.866119
888.69	598	171670	8.868583
889.69	597	172070	8.871047
890.69	596	172850	8.873510
891.69	595	176600	8.875974
892.69	594	176350	8.878437
893.69	593	176330	8.880901
894.69	592	175160	8.883364
895.69	591	169360	8.885828
896.69	590	163860	8.888291
897.69	589	155810	8.890755
898.69	588	152230	8.893219
899.69	587	149200	8.895682
900.69	586	147270	8.898146
901.69	585	146490	8.900609
902.69	584	146150	8.903073
903.69	583	145840	8.905536
904.69	582	146660	8.908000
905.69	581	146950	8.910464
906.69	580	149010	8.912927
907.69	579	149940	8.915391
908.69	578	152070	8.917854
909.69	577	151430	8.920318
910.69	576	155690	8.922781
911.69	575	152800	8.925245
912.69	574	152260	8.927708
913.69	573	152000	8.930172
914.69	572	151800	8.932636
915.69	571	151560	8.935099
916.69	570	149170	8.937563
917.69	569	150170	8.940026
918.69	568	150510	8.942490
919.69	567	150100	8.944953
920.69	566	151190	8.947417
921.69	565	150920	8.949880
922.69	564	149960	8.952344
923.69	563	145240	8.954808
924.69	562	143580	8.957271
925.69	561	143330	8.959735
926.69	560	145040	8.962198
927.69	559	142720	8.964662
928.69	558	144920	8.967125
929.69	557	147560	8.969589
930.69	556	144200	8.972053
931.69	555	145500	8.974516
932.69	554	144660	8.976980
933.69	553	146680	8.979443
934.69	552	144950	8.981907
935.69	551	144420	8.984370
936.69	550	143410	8.986834
937.69	549	143550	8.989297
938.69	548	143230	8.991761
939.69	547	140640	8.994225
940.69	546	142440	8.996688
941.69	545	142490	8.999152
942.69	544	142290	9.001615
943.69	543	142500	9.004079
944.69	542	143930	9.006542
945.69	541	143200	9.009006
946.69	540	145290	9.011470
947.69	539	149550	9.013933
948.69	538	149150	9.016397
949.69	537	147280	9.018860
950.69	536	148290	9.021324
951.69	535	150850	9.023787
952.69	534	164870	9.026251
953.69	533	201600	9.028714
954.69	532	241390	9.031178
955.69	531	229700	9.033642
956.69	530	184630	9.036105
957.69	529	154960	9.038569
958.69	528	146950	9.041032
959.69	527	146000	9.043496
960.69	526	145700	9.045959
961.69	525	143520	9.048423
962.69	524	143910	9.050886
963.69	523	145820	9.053350
964.69	522	152120	9.055814
965.69	521	157260	9.058277
966.69	520	169390	9.060741
967.69	519	181360	9.063204
968.69	518	186380	9.065668
969.69	517	181070	9.068131
970.69	516	168420	9.070595
971.69	515	157610	9.073059
972.69	514	148200	9.075522
973.69	513	143990	9.077986
974.69	512	145420	9.080449
975.69	511	149790	9.082913
976.69	510	156710	9.085376
977.69	509	164030	9.087840
978.69	508	163510	9.090303
979.69	507	159690	9.092767
980.69	506	150220	9.095231
981.69	505	138310	9.097694
982.69	504	130170	9.100158
983.69	503	124940	9.102621
984.69	502	119810	9.105085
985.69	501	117350	9.107548
986.69	500	116030	9.110012
987.69	499	111640	9.112476
988.69	498	111490	9.114939
989.69	497	112820	9.117403
990.69	496	113720	9.119866
991.69	495	116910	9.122330
992.69	494	122420	9.124793
993.69	493	129490	9.127257
994.69	492	134180	9.129720
995.69	491	140620	9.132184
996.69	490	137700	9.134648
997.69	489	128220	9.137111
998.69	488	121490	9.139575
999.69	487	116190	9.142038
1000.69	486	115700	9.144502
1001.69	485	116800	9.146965
1002.69	484	117950	9.149429
1003.69	483	117420	9.151892
1004.69	482	116140	9.154356
1005.69	481	113680	9.156820
1006.69	480	110290	9.159283
1007.69	479	107320	9.161747
1008.69	478	106340	9.164210
1009.69	477	104440	9.166674
1010.69	476	102160	9.169137
1011.69	475	101150	9.171601
1012.69	474	101590	9.174065
1013.69	473	100950	9.176528
1014.69	472	100890	9.178992
1015.69	471	102310	9.181455
1016.69	470	102090	9.183919
1017.69	469	101980	9.186382
1018.69	468	102790	9.188846
1019.69	467	101990	9.191309
1020.69	466	103870	9.193773
1021.69	465	104830	9.196237
1022.69	464	106100	9.198700
1023.69	463	107660	9.201164
1024.69	462	106310	9.203627
1025.69	461	107840	9.206091
1026.69	460	109520	9.208554
1027.69	459	110060	9.211018
1028.69	458	109090	9.213482
1029.69	457	109960	9.215945
1030.69	456	111860	9.218409
1031.69	455	111820	9.220872
1032.69	454	112100	9.223336
1033.69	453	112390	9.225799
1034.69	452	115800	9.228263
1035.69	451	117250	9.231356
1036.69	450	115390	9.234726
1037.69	449	116940	9.238096
1038.69	448	120220	9.241466
1039.69	447	121830	9.244836
1040.69	446	121580	9.248206
1041.69	445	122770	9.251576
1042.69	444	125050	9.254946
1043.69	443	126900	9.258316
1044.69	442	126030	9.261686
1045.69	441	125520	9.265056
1046.69	440	124620	9.268426
1047.69	439	124130	9.271796
1048.69	438	121780	9.275166
1049.69	437	117610	9.278536
1050.69	436	116760	9.281906
1051.69	435	115010	9.285276
1052.69	434	114040	9.288646
1053.69	433	113860	9.292016
1054.69	432	115160	9.295386
1055.69	431	116590	9.298756
1056.69	430	119630	9.302126
1057.69	429	123880	9.305496
1058.69	428	125710	9.308866
1059.69	427	130080	9.312237
1060.69	426	153270	9.315607
1061.69	425	194060	9.318977
1062.69	424	252040	9.322347
1063.69	423	281540	9.325717
1064.69	422	249870	9.329087
1065.69	421	199090	9.332457
1066.69	420	172970	9.335827
1067.69	419	151370	9.339197
1068.69	418	122390	9.342567
1069.69	417	98000	9.345937
1070.69	416	85520	9.349307
1071.69	415	77440	9.352677
1072.69	414	73490	9.356047
1073.69	413	68960	9.359417
1074.69	412	64500	9.362787
1075.69	411	61160	9.366157
1076.69	410	57810	9.369527
1077.69	409	56840	9.372897
1078.69	408	54910	9.376267
1079.69	407	54410	9.379637
1080.69	406	52890	9.383007
1081.69	405	52020	9.386377
1082.69	404	53250	9.389747
1083.69	403	54260	9.393117
1084.69	402	55530	9.396487
1085.69	401	58740	9.399857
1086.69	400	68840	9.403227
1087.69	399	106130	9.406597
1088.69	398	153750	9.409967
1089.69	397	169580	9.413337
1090.69	396	149120	9.416707
1091.69	395	118770	9.420077
1092.69	394	86310	9.423447
1093.69	393	66290	9.426817
1094.69	392	52680	9.430187
1095.69	391	40440	9.433557
1096.69	390	33050	9.436927
1097.69	389	28360	9.440297
1098.69	388	25330	9.443667
1099.69	387	25070	9.447037
1100.69	386	24270	9.450407
1101.69	385	23270	9.453777
1102.69	384	22820	9.457147
1103.69	383	22360	9.460517
1104.69	382	22440	9.463887
1105.69	381	22270	9.467257
1106.69	380	22370	9.470627
1107.69	379	22400	9.473997
1108.69	378	21600	9.477367
1109.69	377	21590	9.480737
1110.69	376	22200	9.484107
1111.69	375	22290	9.487477
1112.69	374	22360	9.490847
1113.69	373	22430	9.494217
1114.69	372	22630	9.497587
1115.69	371	23210	9.500957
1116.69	370	22690	9.504327
1117.69	369	22420	9.507697
1118.69	368	21950	9.511067
1119.69	367	21160	9.514437
1120.69	366	20380	9.517807
1121.69	365	19940	9.521177
1122.69	364	20100	9.524547
1123.69	363	20340	9.527917
1124.69	362	19910	9.531287
1125.69	361	20160	9.534657
1126.69	360	19690	9.538027
1127.69	359	19300	9.541397
1128.69	358	20080	9.544767
1129.69	357	19850	9.548137
1130.69	356	19070	9.551507
1131.69	355	19750	9.554877
1132.69	354	19660	9.558247
1133.69	353	20120	9.561617
1134.69	352	20310	9.564987
1135.69	351	20070	9.568357
1136.69	350	20140	9.571727
1137.69	349	20900	9.575097
1138.69	348	20960	9.578467
1139.69	347	20780	9.581837
1140.69	346	19780	9.585207
1141.69	345	19920	9.588577
1142.69	344	20260	9.591947
1143.69	343	20390	9.595317
1144.69	342	20010	9.598687
1145.69	341	20590	9.602057
1146.69	340	20170	9.605427
1147.69	339	20480	9.608797
1148.69	338	20220	9.612167
1149.69	337	21160	9.615537
1150.69	336	20870	9.618907
1151.69	335	20660	9.622277
1152.69	334	20740	9.625647
1153.69	333	21290	9.629017
1154.69	332	20890	9.632387
1155.69	331	20830	9.635757
1156.69	330	21180	9.639127
1157.69	329	20820	9.642497
1158.69	328	20240	9.645867
1159.69	327	20660	9.649237
1160.69	326	20890	9.652607
1161.69	325	20860	9.655977
1162.69	324	21170	9.659347
1163.69	323	20870	9.662717
1164.69	322	20940	9.666087
1165.69	321	21290	9.669457
1166.69	320	21150	9.672827
1167.69	319	20590	9.676197
1168.69	318	20840	9.679567
1169.69	317	21330	9.682937
1170.69	316	21360	9.686307
1171.69	315	21270	9.689677
1172.69	314	21400	9.693047
1173.69	313	21220	9.696417
1174.69	312	20910	9.699787
1175.69	311	20980	9.703157
1176.69	310	21650	9.706527
1177.69	309	21760	9.709897
1178.69	308	21670	9.713267
1179.69	307	21450	9.716637
1180.69	306	21920	9.720007
1181.69	305	21950	9.723377
1182.69	304	21750	9.726747
1183.69	303	21980	9.730117
1184.69	302	22110	9.733487
1185.69	301	21700	9.736857
1186.69	300	22060	9.740227
1187.69	299	21650	9.743597
1188.69	298	21300	9.746967
1189.69	297	21350	9.750337
1190.69	296	21690	9.753707
1191.69	295	22510	9.757077
1192.69	294	21590	9.760447
1193.69	293	22320	9.763817
1194.69	292	21920	9.767187
1195.69	291	22530	9.770557
1196.69	290	23850	9.773927
1197.69	289	24990	9.777297
1198.69	288	24980	9.780667
1199.69	287	28090	9.784037
1200.69	286	33130	9.787407
1201.69	285	36020	9.790777
1202.69	284	30130	9.794147
1203.69	283	23770	9.797517
1204.69	282	21770	9.800887
1205.69	281	22320	9.804257
1206.69	280	22450	9.807627
1207.69	279	22080	9.810997
1208.69	278	21700	9.814367
1209.69	277	22340	9.817737
1210.69	276	22200	9.821107
1211.69	275	22200	9.824477
1212.69	274	22410	9.827847
1213.69	273	22660	9.831217
1214.69	272	22560	9.834587
1215.69	271	22830	9.837957
1216.69	270	22650	9.841327
1217.69	269	22900	9.844697
1218.69	268	22610	9.848067
1219.69	267	20590	9.851437
1220.69	266	19310	9.854807
1221.69	265	18250	9.858177
1222.69	264	17280	9.861547
1223.69	263	16020	9.864917
1224.69	262	14930	9.868287
1225.69	261	13090	9.871657
1226.69	260	11700	9.875027
1227.69	259	10700	9.878397
1228.69	258	9140	9.881767
1229.69	257	7700	9.885137
1230.69	256	5770	9.888507
1231.69	255	4310	9.891877
1232.69	254	2410	9.895247
1233.69	253	910	9.898617
1234.69	252	1480	9.901987
1235.69	251	3320	9.905357
1236.69	250	4770	9.909562
1237.69	249	6150	9.914044
1238.69	248	7430	9.918526
1239.69	247	8580	9.923009
1240.69	246	10070	9.927491
1241.69	245	11350	9.931974
1242.69	244	13010	9.936456
1243.69	243	14730	9.940939
1244.69	242	16510	9.945421
1245.69	241	18580	9.949903
1246.69	240	20640	9.954386
1247.69	239	23290	9.958868
1248.69	238	25450	9.963351
1249.69	237	26960	9.967833
1250.69	236	26230	9.972316
1251.69	235	26250	9.976798
1252.69	234	25170	9.981280
1253.69	233	25160	9.985763
1254.69	232	24510	9.990245
1255.69	231	25190	9.994728
1256.69	230	25670	9.999210
1257.69	229	24820	10.0037
1258.69	228	25340	10.0082
1259.69	227	26210	10.0127
1260.69	226	26210	10.0171
1261.69	225	25100	10.0216
1262.69	224	25250	10.0261
1263.69	223	25400	10.0306
1264.69	222	26100	10.0351
1265.69	221	25860	10.0396
1266.69	220	26870	10.044
1267.69	219	25750	10.0485
1268.69	218	25990	10.053
1269.69	217	26960	10.0575
1270.69	216	26940	10.062
1271.69	215	26560	10.0664
1272.69	214	26180	10.0709
1273.69	213	26120	10.0754
1274.69	212	27210	10.0799
1275.69	211	26440	10.0844
1276.69	210	26540	10.0889
1277.69	209	27660	10.0933
1278.69	208	27880	10.0978
1279.69	207	27560	10.1023
1280.69	206	27120	10.1068
1281.69	205	27330	10.1113
1282.69	204	28240	10.1158
1283.69	203	27610	10.1202
1284.69	202	28280	10.1247
1285.69	201	29690	10.1292
1286.69	200	30300	10.1337
1287.69	199	30350	10.1382
1288.69	198	29760	10.1426
1289.69	197	29410	10.1471
1290.69	196	28490	10.1516
1291.69	195	28620	10.1561
1292.69	194	28890	10.1606
1293.69	193	28550	10.1651
1294.69	192	29200	10.1695
1295.69	191	29430	10.174
1296.69	190	29500	10.1785
1297.69	189	29280	10.183
1298.69	188	30460	10.1875
1299.69	187	29940	10.192
1300.69	186	31210	10.1964
1301.69	185	30770	10.2009
1302.69	184	31720	10.2054
1303.69	183	31770	10.2099
1304.69	182	32970	10.2144
1305.69	181	32030	10.2188
1306.69	180	33040	10.2233
1307.69	179	32750	10.2278
1308.69	178	31940	10.2323
1309.69	177	31540	10.2368
1310.69	176	30800	10.2413
1311.69	175	30610	10.2457
1312.69	174	29660	10.2502
1313.69	173	30330	10.2547
1314.69	172	29890	10.2592
1315.69	171	28830	10.2637
1316.69	170	29860	10.2682
1317.69	169	29970	10.2726
1318.69	168	29730	10.2771
1319.69	167	30440	10.2816
1320.69	166	30630	10.2861
1321.69	165	31530	10.2906
1322.69	164	35950	10.2951
1323.69	163	45370	10.2995
1324.69	162	60830	10.304
1325.69	161	67240	10.3085
1326.69	160	57310	10.313
1327.69	159	42410	10.3175
1328.69	158	34900	10.3219
1329.69	157	31550	10.3265
1330.69	156	30670	10.3312
1331.69	155	30260	10.3359
1332.69	154	29530	10.3407
1333.69	153	29620	10.3454
1334.69	152	29630	10.3501
1335.69	151	29090	10.3549
1336.69	150	29090	10.3596
1337.69	149	28820	10.3643
1338.69	148	28740	10.3691
1339.69	147	28830	10.3738
1340.69	146	28990	10.3785
1341.69	145	29860	10.3833
1342.69	144	30050	10.388
1343.69	143	29760	10.3927
1344.69	142	30040	10.3974
1345.69	141	30170	10.4022
1346.69	140	30200	10.4069
1347.69	139	29680	10.4116
1348.69	138	29700	10.4164
1349.69	137	30290	10.4211
1350.69	136	30730	10.4258
1351.69	135	30230	10.4306
1352.69	134	30710	10.4353
1353.69	133	31170	10.44
1354.69	132	32000	10.4447
1355.69	131	32580	10.4495
1356.69	130	33270	10.4542
1357.69	129	34230	10.4589
1358.69	128	33040	10.4637
1359.69	127	33550	10.4684
1360.69	126	33500	10.4731
1361.69	125	33030	10.4779
1362.69	124	31840	10.4826
1363.69	123	30770	10.4873
1364.69	122	32040	10.4921
1365.69	121	35570	10.4968
1366.69	120	41630	10.5015
1367.69	119	38650	10.5062
1368.69	118	30960	10.511
1369.69	117	24980	10.5157
1370.69	116	22960	10.5204
1371.69	115	22410	10.5252
1372.69	114	23420	10.5299
1373.69	113	24800	10.5346
1374.69	112	30730	10.5394
1375.69	111	43510	10.5441
1376.69	110	59490	10.5488
1377.69	109	67930	10.5535
1378.69	108	72130	10.5583
1379.69	107	84800	10.563
1380.69	106	96820	10.5677
1381.69	105	84080	10.5725
1382.69	104	54960	10.5772
1383.69	103	34270	10.5819
1384.69	102	24500	10.5867
1385.69	101	19080	10.5914
1386.69	100	15310	10.5961
1387.69	99	13610	10.6009
1388.69	98	12510	10.6056
1389.69	97	12200	10.6103
1390.69	96	11590	10.615
1391.69	95	11220	10.6198
1392.69	94	10930	10.6245
1393.69	93	10000	10.6292
1394.69	92	10320	10.634
1395.69	91	9890	10.6387
1396.69	90	9660	10.6434
1397.69	89	9430	10.6482
1398.69	88	9620	10.6529
1399.69	87	8720	10.6576
1400.69	86	8440	10.6623
1401.69	85	8040	10.6671
1402.69	84	8380	10.6718
1403.69	83	8120	10.6765
1404.69	82	8350	10.6813
1405.69	81	8620	10.686
1406.69	80	8330	10.6907
1407.69	79	8690	10.6955
1408.69	78	8330	10.7002
1409.69	77	10210	10.7049
1410.69	76	17140	10.7097
1411.69	75	23580	10.7144
1412.69	74	19980	10.7191
1413.69	73	13260	10.7238
1414.69	72	8590	10.7286
1415.69	71	8350	10.7333
1416.69	70	8310	10.738
1417.69	69	8040	10.7428
1418.69	68	8520	10.7475
1419.69	67	8630	10.7522
1420.69	66	8340	10.757
1421.69	65	8130	10.7617
1422.69	64	7740	10.7664
1423.69	63	7270	10.7712
1424.69	62	6800	10.7759
1425.69	61	6340	10.7806
1426.69	60	6060	10.7853
1427.69	59	5680	10.7901
1428.69	58	4990	10.7948
1429.69	57	4670	10.7995
1430.69	56	4210	10.8043
1431.69	55	3350	10.809
1432.69	54	2920	10.8137
1433.69	53	2240	10.8185
1434.69	52	1340	10.8232
1435.69	51	900	10.8279
1436.69	50	330	10.8326
1437.69	49	670	10.8374
1438.69	48	1470	10.8421
1439.69	47	2090	10.8468
1440.69	46	2570	10.8516
1441.69	45	3360	10.8563
1442.69	44	3950	10.861
1443.69	43	5110	10.8658
1444.69	42	5950	10.8705
1445.69	41	7020	10.8752
1446.69	40	8020	10.88
1447.69	39	8490	10.8847
1448.69	38	8840	10.8894
1449.69	37	9110	10.8941
1450.69	36	8700	10.8989
1451.69	35	8910	10.9036
1452.69	34	8550	10.9083
1453.69	33	7770	10.9131
1454.69	32	6850	10.9178
1455.69	31	6900	10.9225
1456.69	30	6500	10.9273
1457.69	29	6410	10.932
1458.69	28	5940	10.9367
1459.69	27	5570	10.9414
1460.69	26	6470	10.9462
1461.69	25	7870	10.9509
1462.69	24	10160	10.9556
1463.69	23	16210	10.9559
1464.69	22	40750	10.9559
1465.69	21	76000	10.9559
1466.69	20	69970	10.9559
1467.69	19	29460	10.9559
1468.69	18	10010	10.9559
1469.69	17	6500	10.9559
1470.69	16	4200	10.9559
1471.69	15	2300	10.9559
1472.69	14	1710	10.9559
1473.69	13	1340	10.9559
1474.69	12	1760	10.9559
1475.69	11	2700	10.9559
1476.69	10	3910	10.9559
1477.69	9.000000	4250	10.9559
1478.69	8.000000	4210	10.9559
1479.69	7.000000	4110	10.9559
1480.69	6.000000	4550	10.9559
1481.69	5.000000	3880	10.9559
1482.69	4.000000	2310	10.9559
1483.69	3.000000	1160	10.9559
1484.69	2.000000	410	10.9559
1485.69	1.000000	140	10.9559
1486.69	0.000000	120	10.9559
1487.69	-1.000000	90	10.9559
1488.69	-2.000000	70	10.9559
1489.69	-3.000000	20	10.9559
1490.69	-4.000000	0.000000	10.9559
1491.69	-5.000000	10	10.9559