File: KHU_project/ITOwide/wide_pe40
Dataset wide_40:4(ito)
Dwell Time (s)	0.100000
Number of sweeps	20
Kinetic Energy(eV)	Binding Energy(eV)	Intensity(cps)	Transmission Value
286.69	1200	3069	1.640891
287.69	1199	3186	1.639713
288.69	1198	3180	1.638535
289.69	1197	3235	1.637357
290.69	1196	3218.5	1.636179
291.69	1195	3311.5	1.635001
292.69	1194	3307	1.633822
293.69	1193	3472.5	1.632644
294.69	1192	3363.5	1.631466
295.69	1191	3397	1.630288
296.69	1190	3289	1.629110
297.69	1189	3299.5	1.627932
298.69	1188	3256	1.626754
299.69	1187	3271.5	1.625576
300.69	1186	3243	1.624398
301.69	1185	3296	1.623219
302.69	1184	3282.5	1.622041
303.69	1183	3230.5	1.620863
304.69	1182	3253.5	1.619685
305.69	1181	3258	1.618507
306.69	1180	3198	1.617329
307.69	1179	3185	1.616151
308.69	1178	3260.5	1.614973
309.69	1177	3261.5	1.613795
310.69	1176	3272.5	1.612616
311.69	1175	3269	1.611438
312.69	1174	3327	1.610260
313.69	1173	3385.5	1.609082
314.69	1172	3325	1.607904
315.69	1171	3378.5	1.606726
316.69	1170	3382.5	1.605548
317.69	1169	3412	1.604370
318.69	1168	3362.5	1.603192
319.69	1167	3365	1.602013
320.69	1166	3456.5	1.600835
321.69	1165	3427.5	1.599657
322.69	1164	3543.5	1.598479
323.69	1163	3508.5	1.597301
324.69	1162	3536.5	1.596123
325.69	1161	3604	1.594945
326.69	1160	3587	1.593767
327.69	1159	3530.5	1.592589
328.69	1158	3591.5	1.591888
329.69	1157	3611	1.591778
330.69	1156	3564	1.591669
331.69	1155	3617	1.591559
332.69	1154	3584.5	1.591449
333.69	1153	3616	1.591340
334.69	1152	3693.5	1.591230
335.69	1151	3621	1.591120
336.69	1150	3663.5	1.591011
337.69	1149	3641	1.590901
338.69	1148	3691	1.590791
339.69	1147	3683	1.590682
340.69	1146	3662.5	1.590572
341.69	1145	3694.5	1.590462
342.69	1144	3680	1.590352
343.69	1143	3654	1.590243
344.69	1142	3589	1.590133
345.69	1141	3512.5	1.590023
346.69	1140	3518	1.589914
347.69	1139	3530	1.589804
348.69	1138	3442	1.589694
349.69	1137	3483	1.589585
350.69	1136	3399.5	1.589475
351.69	1135	3445.5	1.589365
352.69	1134	3420	1.589256
353.69	1133	3364.5	1.589146
354.69	1132	3354.5	1.589036
355.69	1131	3406.5	1.588927
356.69	1130	3297	1.588817
357.69	1129	3363.5	1.588707
358.69	1128	3385	1.588598
359.69	1127	3367	1.588488
360.69	1126	3391.5	1.588378
361.69	1125	3371.5	1.588268
362.69	1124	3380	1.588159
363.69	1123	3437	1.588049
364.69	1122	3444	1.587939
365.69	1121	3480	1.587830
366.69	1120	3457.5	1.587720
367.69	1119	3462	1.587610
368.69	1118	3558.5	1.587501
369.69	1117	3530	1.587391
370.69	1116	3597	1.587281
371.69	1115	3526	1.587172
372.69	1114	3580.5	1.587062
373.69	1113	3571	1.586952
374.69	1112	3628	1.586843
375.69	1111	3650.5	1.586733
376.69	1110	3705	1.586623
377.69	1109	3754.5	1.586513
378.69	1108	3674.5	1.586404
379.69	1107	3640	1.586294
380.69	1106	3804.5	1.586184
381.69	1105	3703	1.586075
382.69	1104	3791.5	1.585965
383.69	1103	3768	1.585855
384.69	1102	3827.5	1.585746
385.69	1101	3822	1.585636
386.69	1100	3732	1.585526
387.69	1099	3781.5	1.585417
388.69	1098	3795	1.585307
389.69	1097	3798.5	1.585197
390.69	1096	3935.5	1.585088
391.69	1095	3823.5	1.584978
392.69	1094	3862.5	1.584868
393.69	1093	3942.5	1.584759
394.69	1092	4154	1.584649
395.69	1091	4312.5	1.584539
396.69	1090	4450	1.584429
397.69	1089	4872	1.584320
398.69	1088	5429	1.584210
399.69	1087	5767.5	1.584100
400.69	1086	5962	1.583991
401.69	1085	5637.5	1.583881
402.69	1084	5266	1.583771
403.69	1083	4793.5	1.583662
404.69	1082	4596.5	1.583552
405.69	1081	4740.5	1.583442
406.69	1080	4850.5	1.583333
407.69	1079	4798	1.583223
408.69	1078	4437	1.583113
409.69	1077	4009	1.583004
410.69	1076	3663	1.582894
411.69	1075	3481	1.582784
412.69	1074	3275.5	1.582675
413.69	1073	3209	1.582565
414.69	1072	3203.5	1.582455
415.69	1071	3223	1.582345
416.69	1070	3208.5	1.582236
417.69	1069	3267	1.582126
418.69	1068	3299.5	1.582016
419.69	1067	3305.5	1.581907
420.69	1066	3344.5	1.581797
421.69	1065	3272	1.581687
422.69	1064	3376	1.581578
423.69	1063	3425	1.581468
424.69	1062	3539.5	1.581358
425.69	1061	3502	1.581249
426.69	1060	3513	1.581139
427.69	1059	3507.5	1.581029
428.69	1058	3417.5	1.580920
429.69	1057	3295.5	1.580810
430.69	1056	3228	1.580700
431.69	1055	3290.5	1.580590
432.69	1054	3351	1.580481
433.69	1053	3314.5	1.580371
434.69	1052	3331.5	1.580261
435.69	1051	3231	1.580152
436.69	1050	3170	1.580042
437.69	1049	3227	1.579932
438.69	1048	3157	1.579823
439.69	1047	3152	1.579713
440.69	1046	3134	1.579603
441.69	1045	3179.5	1.579494
442.69	1044	3231	1.579384
443.69	1043	3144.5	1.579274
444.69	1042	3259	1.579165
445.69	1041	3328	1.579055
446.69	1040	3242.5	1.578945
447.69	1039	3236	1.578836
448.69	1038	3249	1.578726
449.69	1037	3367.5	1.578616
450.69	1036	3286	1.578506
451.69	1035	3321	1.578397
452.69	1034	3342.5	1.578287
453.69	1033	3372	1.578177
454.69	1032	3312	1.578068
455.69	1031	3418	1.577958
456.69	1030	3353	1.577869
457.69	1029	3378	1.577790
458.69	1028	3399	1.577712
459.69	1027	3482	1.577633
460.69	1026	3468.5	1.577555
461.69	1025	3484	1.577476
462.69	1024	3479	1.577398
463.69	1023	3532.5	1.577319
464.69	1022	3480.5	1.577240
465.69	1021	3505.5	1.577162
466.69	1020	3541	1.577083
467.69	1019	3548.5	1.577005
468.69	1018	3556	1.576926
469.69	1017	3573.5	1.576848
470.69	1016	3712.5	1.576769
471.69	1015	3682	1.576691
472.69	1014	3685.5	1.576612
473.69	1013	3660	1.576533
474.69	1012	3718	1.576455
475.69	1011	3715	1.576376
476.69	1010	3762.5	1.576298
477.69	1009	3748	1.576219
478.69	1008	3796	1.576141
479.69	1007	3797.5	1.576062
480.69	1006	3868.5	1.575983
481.69	1005	3748	1.575905
482.69	1004	3795.5	1.575826
483.69	1003	3823.5	1.575748
484.69	1002	3868	1.575669
485.69	1001	3902.5	1.575591
486.69	1000	3935.5	1.575512
487.69	999	4079	1.575434
488.69	998	4052.5	1.575355
489.69	997	4061.5	1.575276
490.69	996	4102.5	1.575198
491.69	995	4248.5	1.575119
492.69	994	4234	1.575041
493.69	993	4100.5	1.574962
494.69	992	3996.5	1.574884
495.69	991	3975	1.574805
496.69	990	4044	1.574727
497.69	989	4047.5	1.574648
498.69	988	4040.5	1.574569
499.69	987	4006.5	1.574491
500.69	986	3991.5	1.574412
501.69	985	4041.5	1.574334
502.69	984	4040	1.574255
503.69	983	3975	1.574177
504.69	982	4076.5	1.574098
505.69	981	4088	1.574019
506.69	980	4106.5	1.573941
507.69	979	4302	1.573862
508.69	978	4418.5	1.573784
509.69	977	4617.5	1.573705
510.69	976	4930.5	1.573627
511.69	975	5245.5	1.573548
512.69	974	5241	1.573470
513.69	973	4886.5	1.573391
514.69	972	4573.5	1.573312
515.69	971	4316.5	1.573234
516.69	970	4203.5	1.573155
517.69	969	4175	1.573077
518.69	968	4114	1.572998
519.69	967	4053.5	1.572920
520.69	966	3960	1.572841
521.69	965	3886.5	1.572763
522.69	964	3830.5	1.572684
523.69	963	3791	1.572605
524.69	962	3817	1.572527
525.69	961	3831.5	1.572448
526.69	960	3840.5	1.572370
527.69	959	3909.5	1.572291
528.69	958	3853	1.572213
529.69	957	3874.5	1.572134
530.69	956	3894	1.572056
531.69	955	3919	1.571977
532.69	954	3970	1.571898
533.69	953	3997	1.571820
534.69	952	3950.5	1.571741
535.69	951	3924.5	1.571663
536.69	950	3991.5	1.571584
537.69	949	3970.5	1.571506
538.69	948	4011	1.571427
539.69	947	4082	1.571348
540.69	946	4079.5	1.571270
541.69	945	4079	1.571191
542.69	944	4068.5	1.571113
543.69	943	4086.5	1.571034
544.69	942	4087	1.570956
545.69	941	4120.5	1.570877
546.69	940	4159.5	1.570799
547.69	939	4027	1.570720
548.69	938	4134	1.570641
549.69	937	4138.5	1.570563
550.69	936	4159	1.570484
551.69	935	4154.5	1.570406
552.69	934	4218.5	1.570327
553.69	933	4297	1.570249
554.69	932	4305	1.570170
555.69	931	4324	1.570092
556.69	930	4233	1.570013
557.69	929	4242	1.569934
558.69	928	4259	1.569856
559.69	927	4317	1.569777
560.69	926	4289	1.569699
561.69	925	4275.5	1.569620
562.69	924	4351.5	1.569542
563.69	923	4315	1.569463
564.69	922	4378	1.569384
565.69	921	4304.5	1.569306
566.69	920	4389	1.569227
567.69	919	4446.5	1.569149
568.69	918	4310	1.569070
569.69	917	4433	1.568992
570.69	916	4420	1.568913
571.69	915	4430.5	1.568835
572.69	914	4417.5	1.568756
573.69	913	4396	1.568677
574.69	912	4514	1.568599
575.69	911	4465	1.568520
576.69	910	4469	1.568442
577.69	909	4524	1.568363
578.69	908	4507.5	1.568285
579.69	907	4592.5	1.568206
580.69	906	4523.5	1.568128
581.69	905	4600.5	1.568049
582.69	904	4575.5	1.567970
583.69	903	4590.5	1.567892
584.69	902	4615.5	1.567813
585.69	901	4609	1.567735
586.69	900	4655	1.567656
587.69	899	4621.5	1.567578
588.69	898	4694	1.567499
589.69	897	4594.5	1.567420
590.69	896	4712.5	1.567342
591.69	895	4754.5	1.567263
592.69	894	4786.5	1.567185
593.69	893	4718.5	1.567106
594.69	892	4760.5	1.567028
595.69	891	4721.5	1.566949
596.69	890	4818	1.566871
597.69	889	4811	1.566792
598.69	888	4895.5	1.566713
599.69	887	4883	1.566635
600.69	886	4865	1.566556
601.69	885	4774.5	1.566478
602.69	884	4938.5	1.566399
603.69	883	4852	1.566321
604.69	882	4916.5	1.566242
605.69	881	4895.5	1.566164
606.69	880	4924.5	1.566085
607.69	879	4963	1.566006
608.69	878	4878.5	1.565928
609.69	877	4915	1.565849
610.69	876	4908	1.565771
611.69	875	4948	1.565692
612.69	874	4993.5	1.565614
613.69	873	5057	1.565535
614.69	872	5032.5	1.565457
615.69	871	4955.5	1.565378
616.69	870	5019	1.565299
617.69	869	5069	1.565221
618.69	868	5004	1.565142
619.69	867	5021	1.565064
620.69	866	5088	1.564985
621.69	865	5142	1.564907
622.69	864	5167.5	1.564828
623.69	863	5130.5	1.564749
624.69	862	5118.5	1.564671
625.69	861	5156	1.564592
626.69	860	5146.5	1.564514
627.69	859	5172.5	1.564435
628.69	858	5142	1.564357
629.69	857	5244.5	1.564278
630.69	856	5323.5	1.564200
631.69	855	5342.5	1.564121
632.69	854	5283.5	1.564042
633.69	853	5265.5	1.563964
634.69	852	5305	1.563885
635.69	851	5364	1.563807
636.69	850	5358.5	1.563728
637.69	849	5448	1.563650
638.69	848	5409.5	1.563571
639.69	847	5400	1.563493
640.69	846	5416.5	1.563414
641.69	845	5485.5	1.563335
642.69	844	5436.5	1.563257
643.69	843	5491	1.563178
644.69	842	5456.5	1.563100
645.69	841	5465.5	1.563021
646.69	840	5550	1.562943
647.69	839	5503.5	1.562864
648.69	838	5564.5	1.562785
649.69	837	5487	1.562707
650.69	836	5645.5	1.562628
651.69	835	5690.5	1.562550
652.69	834	5765.5	1.562471
653.69	833	5822.5	1.562393
654.69	832	5766	1.562314
655.69	831	5956	1.562236
656.69	830	5960.5	1.562157
657.69	829	6185	1.562078
658.69	828	6126.5	1.562000
659.69	827	6132	1.561921
660.69	826	6108	1.561843
661.69	825	5954.5	1.561764
662.69	824	5864	1.561686
663.69	823	5791	1.561607
664.69	822	5800.5	1.561529
665.69	821	5773	1.561588
666.69	820	5706.5	1.561693
667.69	819	5652	1.561798
668.69	818	5624.5	1.561902
669.69	817	5601	1.562007
670.69	816	5592.5	1.562111
671.69	815	5609	1.562216
672.69	814	5560.5	1.562321
673.69	813	5520.5	1.562425
674.69	812	5669.5	1.562530
675.69	811	5619	1.562634
676.69	810	5653.5	1.562739
677.69	809	5584.5	1.562843
678.69	808	5603.5	1.562948
679.69	807	5634	1.563053
680.69	806	5560	1.563157
681.69	805	5613.5	1.563262
682.69	804	5664.5	1.563366
683.69	803	5689	1.563471
684.69	802	5656.5	1.563576
685.69	801	5666.5	1.563680
686.69	800	5751	1.563785
687.69	799	5664.5	1.563889
688.69	798	5670.5	1.563994
689.69	797	5709.5	1.564099
690.69	796	5684	1.564203
691.69	795	5823.5	1.564308
692.69	794	5722.5	1.564412
693.69	793	5806	1.564517
694.69	792	5700.5	1.564622
695.69	791	5732.5	1.564726
696.69	790	5804.5	1.564831
697.69	789	5761.5	1.564935
698.69	788	5788.5	1.565040
699.69	787	5809.5	1.565145
700.69	786	5786	1.565249
701.69	785	5773.5	1.565354
702.69	784	5806.5	1.565458
703.69	783	5788.5	1.565563
704.69	782	5880.5	1.565667
705.69	781	5837.5	1.565772
706.69	780	5910	1.565877
707.69	779	5947.5	1.565981
708.69	778	5879.5	1.566086
709.69	777	6015.5	1.566190
710.69	776	6019	1.566295
711.69	775	5959	1.566400
712.69	774	6040.5	1.566504
713.69	773	6071	1.566609
714.69	772	6032	1.566713
715.69	771	6068.5	1.566818
716.69	770	6056	1.566923
717.69	769	6003	1.567027
718.69	768	6006	1.567132
719.69	767	6001.5	1.567236
720.69	766	6057.5	1.567341
721.69	765	6074.5	1.567446
722.69	764	6182	1.567550
723.69	763	6135	1.567655
724.69	762	6253.5	1.567759
725.69	761	6223.5	1.567864
726.69	760	6324	1.567969
727.69	759	6529	1.568073
728.69	758	6547.5	1.568178
729.69	757	6437.5	1.568282
730.69	756	6290	1.568387
731.69	755	6362	1.568492
732.69	754	6242.5	1.568596
733.69	753	6248	1.568701
734.69	752	6153.5	1.568805
735.69	751	6287.5	1.568910
736.69	750	6310.5	1.569014
737.69	749	6329	1.569119
738.69	748	6251.5	1.569224
739.69	747	6364	1.569328
740.69	746	6246.5	1.569433
741.69	745	6428.5	1.569537
742.69	744	6355	1.569642
743.69	743	6348.5	1.569747
744.69	742	6444	1.569851
745.69	741	6391	1.569956
746.69	740	6450.5	1.570060
747.69	739	6310	1.570165
748.69	738	6411.5	1.570270
749.69	737	6469.5	1.570374
750.69	736	6472	1.570479
751.69	735	6543	1.570583
752.69	734	6520.5	1.570688
753.69	733	6547.5	1.570793
754.69	732	6548.5	1.570897
755.69	731	6477.5	1.571002
756.69	730	6588.5	1.571106
757.69	729	6540	1.571211
758.69	728	6629.5	1.571316
759.69	727	6651	1.571420
760.69	726	6768.5	1.571525
761.69	725	6688.5	1.571629
762.69	724	6662	1.571734
763.69	723	6732	1.571838
764.69	722	6881.5	1.571943
765.69	721	6855.5	1.572048
766.69	720	6856	1.572152
767.69	719	6926	1.572257
768.69	718	7191	1.572361
769.69	717	7463.5	1.572466
770.69	716	7510	1.572571
771.69	715	7122	1.572675
772.69	714	6852	1.572780
773.69	713	6748.5	1.572884
774.69	712	6698	1.572989
775.69	711	6608.5	1.573094
776.69	710	6642	1.573198
777.69	709	6773.5	1.573303
778.69	708	7108.5	1.573407
779.69	707	7582	1.573512
780.69	706	8364	1.573617
781.69	705	9666.5	1.573721
782.69	704	10303.5	1.573826
783.69	703	9340	1.573930
784.69	702	7854.5	1.574035
785.69	701	7155	1.574140
786.69	700	6803	1.574244
787.69	699	6589	1.574349
788.69	698	6397	1.574453
789.69	697	6347	1.574558
790.69	696	6364.5	1.574663
791.69	695	6410.5	1.574767
792.69	694	6352	1.574872
793.69	693	6443	1.574976
794.69	692	6321.5	1.575081
795.69	691	6406.5	1.575185
796.69	690	6352.5	1.575290
797.69	689	6382.5	1.575395
798.69	688	6504.5	1.575499
799.69	687	6479.5	1.575604
800.69	686	6590.5	1.575708
801.69	685	6728.5	1.575813
802.69	684	6600	1.575918
803.69	683	6533	1.576022
804.69	682	6518.5	1.576127
805.69	681	6372.5	1.576231
806.69	680	6389.5	1.576336
807.69	679	6317	1.576441
808.69	678	6327	1.576545
809.69	677	6268	1.576650
810.69	676	6156	1.576754
811.69	675	6255.5	1.576859
812.69	674	6195.5	1.576964
813.69	673	6343	1.577068
814.69	672	6462.5	1.577173
815.69	671	6809.5	1.577277
816.69	670	7220.5	1.577382
817.69	669	8335	1.577487
818.69	668	10303	1.577591
819.69	667	12722.5	1.577696
820.69	666	13693.5	1.577800
821.69	665	11483	1.577905
822.69	664	8791	1.578009
823.69	663	7249.5	1.578114
824.69	662	6424	1.578219
825.69	661	6053	1.578323
826.69	660	5609	1.578428
827.69	659	5604	1.578532
828.69	658	5458.5	1.578637
829.69	657	5363.5	1.578742
830.69	656	5384	1.578846
831.69	655	5307.5	1.578951
832.69	654	5271	1.579055
833.69	653	5288.5	1.579160
834.69	652	5203.5	1.579265
835.69	651	5198	1.579369
836.69	650	5261	1.579474
837.69	649	5310	1.579578
838.69	648	5287	1.579683
839.69	647	5254	1.579788
840.69	646	5268.5	1.579892
841.69	645	5242	1.579997
842.69	644	5284.5	1.580101
843.69	643	5329	1.580206
844.69	642	5309	1.580311
845.69	641	5313.5	1.580415
846.69	640	5275.5	1.580520
847.69	639	5210.5	1.580624
848.69	638	5262	1.580729
849.69	637	5238.5	1.580834
850.69	636	5275	1.580938
851.69	635	5307	1.581043
852.69	634	5293.5	1.581147
853.69	633	5362	1.581252
854.69	632	5279	1.581356
855.69	631	5294.5	1.581461
856.69	630	5298	1.581566
857.69	629	5331.5	1.581670
858.69	628	5333.5	1.581775
859.69	627	5352	1.581879
860.69	626	5378.5	1.581984
861.69	625	5349.5	1.582089
862.69	624	5364	1.582193
863.69	623	5401	1.582298
864.69	622	5418.5	1.582402
865.69	621	5419.5	1.582507
866.69	620	5481	1.582612
867.69	619	5380	1.582716
868.69	618	5444.5	1.582821
869.69	617	5433	1.582925
870.69	616	5466.5	1.583030
871.69	615	5343.5	1.583135
872.69	614	5392	1.583239
873.69	613	5490	1.583344
874.69	612	5514.5	1.583448
875.69	611	5438.5	1.583553
876.69	610	5544.5	1.583658
877.69	609	5531	1.583762
878.69	608	5518.5	1.583867
879.69	607	5446.5	1.583971
880.69	606	5513.5	1.584076
881.69	605	5529.5	1.584180
882.69	604	5524	1.584285
883.69	603	5488	1.584390
884.69	602	5540.5	1.584494
885.69	601	5555.5	1.584599
886.69	600	5507	1.584703
887.69	599	5551	1.584627
888.69	598	5605	1.584535
889.69	597	5648.5	1.584443
890.69	596	5651.5	1.584351
891.69	595	5631	1.584259
892.69	594	5701.5	1.584167
893.69	593	5632.5	1.584075
894.69	592	5732	1.583983
895.69	591	5591	1.583891
896.69	590	5615	1.583799
897.69	589	5627	1.583707
898.69	588	5631.5	1.583615
899.69	587	5666.5	1.583523
900.69	586	5732	1.583431
901.69	585	5757.5	1.583339
902.69	584	5688	1.583247
903.69	583	5715	1.583155
904.69	582	5769	1.583063
905.69	581	5718	1.582971
906.69	580	5718	1.582879
907.69	579	5726	1.582786
908.69	578	5841	1.582694
909.69	577	5831	1.582602
910.69	576	5789.5	1.582510
911.69	575	5878.5	1.582418
912.69	574	5818	1.582326
913.69	573	5860.5	1.582234
914.69	572	5888.5	1.582142
915.69	571	5868.5	1.582050
916.69	570	5916	1.581958
917.69	569	5870.5	1.581866
918.69	568	5928	1.581774
919.69	567	5946	1.581682
920.69	566	5850	1.581590
921.69	565	5909.5	1.581498
922.69	564	5847.5	1.581406
923.69	563	5854	1.581314
924.69	562	5896	1.581222
925.69	561	5922	1.581130
926.69	560	5969	1.581038
927.69	559	5966.5	1.580946
928.69	558	5943.5	1.580854
929.69	557	6033	1.580762
930.69	556	6118	1.580669
931.69	555	6100.5	1.580577
932.69	554	6045	1.580485
933.69	553	6142.5	1.580393
934.69	552	6143.5	1.580301
935.69	551	6263	1.580209
936.69	550	6190	1.580117
937.69	549	6314	1.580025
938.69	548	6248.5	1.579933
939.69	547	6295.5	1.579841
940.69	546	6208	1.579749
941.69	545	5979	1.579657
942.69	544	5872	1.579565
943.69	543	5750.5	1.579473
944.69	542	5802.5	1.579381
945.69	541	5717.5	1.579289
946.69	540	5650	1.579197
947.69	539	5629	1.579105
948.69	538	5642.5	1.579013
949.69	537	5619	1.578921
950.69	536	5564.5	1.578829
951.69	535	5743	1.578737
952.69	534	5979.5	1.578645
953.69	533	7020.5	1.578552
954.69	532	9303	1.578460
955.69	531	12965.5	1.578368
956.69	530	12798.5	1.578276
957.69	529	6158	1.578184
958.69	528	5420	1.578092
959.69	527	5330.5	1.578000
960.69	526	5295	1.577908
961.69	525	5246.5	1.577816
962.69	524	5380.5	1.577724
963.69	523	5328.5	1.577632
964.69	522	5314.5	1.577540
965.69	521	5398.5	1.577448
966.69	520	5266.5	1.577356
967.69	519	5301	1.577264
968.69	518	5325	1.577172
969.69	517	5313	1.577080
970.69	516	5392.5	1.576988
971.69	515	5435.5	1.576896
972.69	514	5419	1.576804
973.69	513	5521	1.576712
974.69	512	5475	1.576620
975.69	511	5472	1.576528
976.69	510	5532	1.576435
977.69	509	5542.5	1.576343
978.69	508	5466	1.576251
979.69	507	5552	1.576159
980.69	506	5543.5	1.576067
981.69	505	5411	1.575975
982.69	504	5437	1.575883
983.69	503	5400.5	1.575791
984.69	502	5357	1.575699
985.69	501	5357	1.575607
986.69	500	5404	1.575515
987.69	499	5416.5	1.575423
988.69	498	5524.5	1.575331
989.69	497	6078	1.575239
990.69	496	7441.5	1.575147
991.69	495	7804.5	1.575055
992.69	494	5709	1.574963
993.69	493	5261	1.574871
994.69	492	5173	1.574779
995.69	491	5213	1.574687
996.69	490	5393	1.574595
997.69	489	5782.5	1.574503
998.69	488	7279	1.574411
999.69	487	9004.5	1.574318
1000.69	486	6906	1.574226
1001.69	485	5281	1.574134
1002.69	484	5114	1.574042
1003.69	483	5100	1.573950
1004.69	482	5097.5	1.573858
1005.69	481	5221.5	1.573766
1006.69	480	5215	1.573674
1007.69	479	5193.5	1.573582
1008.69	478	5195	1.573490
1009.69	477	5256	1.573398
1010.69	476	5275.5	1.573306
1011.69	475	5405	1.573214
1012.69	474	5497.5	1.573122
1013.69	473	5626	1.573030
1014.69	472	5682	1.572938
1015.69	471	5665.5	1.572846
1016.69	470	5689	1.572754
1017.69	469	5668	1.572662
1018.69	468	5506	1.572570
1019.69	467	5500	1.572478
1020.69	466	5562.5	1.572386
1021.69	465	5597	1.572294
1022.69	464	5645	1.572201
1023.69	463	5446	1.572109
1024.69	462	5131.5	1.572017
1025.69	461	4848	1.571925
1026.69	460	4639	1.571833
1027.69	459	4488.5	1.571741
1028.69	458	4424.5	1.571649
1029.69	457	4465	1.571557
1030.69	456	4756	1.571465
1031.69	455	5784.5	1.571373
1032.69	454	10434.5	1.571281
1033.69	453	23337.5	1.571189
1034.69	452	25782	1.571097
1035.69	451	5262	1.571028
1036.69	450	3040.5	1.570968
1037.69	449	3041.5	1.570909
1038.69	448	3960.5	1.570850
1039.69	447	7283	1.570791
1040.69	446	19677	1.570731
1041.69	445	39126	1.570672
1042.69	444	18368.5	1.570613
1043.69	443	2765	1.570553
1044.69	442	1501	1.570494
1045.69	441	1193.5	1.570435
1046.69	440	1067.5	1.570375
1047.69	439	995	1.570316
1048.69	438	918	1.570257
1049.69	437	888	1.570198
1050.69	436	858.5	1.570138
1051.69	435	823.5	1.570079
1052.69	434	843	1.570020
1053.69	433	855	1.569960
1054.69	432	863.5	1.569901
1055.69	431	796.5	1.569842
1056.69	430	825.5	1.569783
1057.69	429	835	1.569723
1058.69	428	803.5	1.569664
1059.69	427	804.5	1.569605
1060.69	426	792	1.569545
1061.69	425	810	1.569486
1062.69	424	814	1.569427
1063.69	423	797	1.569368
1064.69	422	801	1.569308
1065.69	421	803.5	1.569249
1066.69	420	799.5	1.569190
1067.69	419	793.5	1.569130
1068.69	418	812.5	1.569071
1069.69	417	794	1.569012
1070.69	416	806.5	1.568953
1071.69	415	788.5	1.568893
1072.69	414	821.5	1.568834
1073.69	413	804.5	1.568775
1074.69	412	802.5	1.568715
1075.69	411	823.5	1.568656
1076.69	410	794	1.568597
1077.69	409	813.5	1.568537
1078.69	408	803	1.568478
1079.69	407	816	1.568419
1080.69	406	807	1.568360
1081.69	405	799.5	1.568300
1082.69	404	795	1.568241
1083.69	403	813	1.568182
1084.69	402	842.5	1.568122
1085.69	401	835.5	1.568063
1086.69	400	833	1.568004
1087.69	399	808.5	1.567945
1088.69	398	808.5	1.567885
1089.69	397	829.5	1.567826
1090.69	396	809	1.567767
1091.69	395	814.5	1.567707
1092.69	394	806.5	1.567648
1093.69	393	817.5	1.567589
1094.69	392	816	1.567530
1095.69	391	795.5	1.567470
1096.69	390	813.5	1.567411
1097.69	389	830	1.567352
1098.69	388	786	1.567292
1099.69	387	794	1.567233
1100.69	386	817	1.567174
1101.69	385	790.5	1.567115
1102.69	384	817.5	1.567055
1103.69	383	819	1.566996
1104.69	382	809.5	1.566937
1105.69	381	826	1.566877
1106.69	380	819.5	1.566818
1107.69	379	837	1.566759
1108.69	378	825.5	1.566699
1109.69	377	847.5	1.566640
1110.69	376	818.5	1.566581
1111.69	375	837.5	1.566522
1112.69	374	820.5	1.566462
1113.69	373	825.5	1.566403
1114.69	372	841.5	1.566344
1115.69	371	823	1.566284
1116.69	370	806	1.566225
1117.69	369	791	1.566166
1118.69	368	815	1.566107
1119.69	367	771.5	1.566047
1120.69	366	817	1.565988
1121.69	365	844.5	1.565929
1122.69	364	804.5	1.565869
1123.69	363	802	1.565810
1124.69	362	850	1.565751
1125.69	361	818.5	1.565692
1126.69	360	811	1.565632
1127.69	359	863	1.565573
1128.69	358	831.5	1.565514
1129.69	357	826	1.565454
1130.69	356	819.5	1.565395
1131.69	355	846	1.565336
1132.69	354	811	1.565277
1133.69	353	844.5	1.565217
1134.69	352	848	1.565158
1135.69	351	845.5	1.565099
1136.69	350	865.5	1.565039
1137.69	349	861	1.564980
1138.69	348	830.5	1.564921
1139.69	347	881.5	1.564862
1140.69	346	818.5	1.564802
1141.69	345	853.5	1.564743
1142.69	344	815.5	1.564684
1143.69	343	805.5	1.564624
1144.69	342	866.5	1.564565
1145.69	341	848.5	1.564506
1146.69	340	815.5	1.564446
1147.69	339	829.5	1.564387
1148.69	338	868	1.564328
1149.69	337	880	1.564269
1150.69	336	897	1.564209
1151.69	335	868.5	1.564150
1152.69	334	867	1.564091
1153.69	333	845.5	1.564031
1154.69	332	858.5	1.563972
1155.69	331	819	1.563913
1156.69	330	841	1.563854
1157.69	329	841	1.563794
1158.69	328	870	1.563735
1159.69	327	906.5	1.563676
1160.69	326	847	1.563616
1161.69	325	868.5	1.563557
1162.69	324	879.5	1.563498
1163.69	323	880	1.563439
1164.69	322	870.5	1.563379
1165.69	321	871	1.563320
1166.69	320	866.5	1.563261
1167.69	319	917.5	1.563201
1168.69	318	875.5	1.563142
1169.69	317	873.5	1.563083
1170.69	316	908.5	1.563024
1171.69	315	904	1.562964
1172.69	314	886.5	1.562905
1173.69	313	887	1.562846
1174.69	312	865.5	1.562786
1175.69	311	900.5	1.562727
1176.69	310	889	1.562668
1177.69	309	884	1.562608
1178.69	308	875.5	1.562549
1179.69	307	911	1.562490
1180.69	306	920	1.562431
1181.69	305	893	1.562371
1182.69	304	875.5	1.562312
1183.69	303	885	1.562253
1184.69	302	898	1.562193
1185.69	301	902.5	1.562134
1186.69	300	860.5	1.562075
1187.69	299	898.5	1.562016
1188.69	298	876	1.561956
1189.69	297	882.5	1.561897
1190.69	296	869.5	1.561838
1191.69	295	918.5	1.561778
1192.69	294	904.5	1.561719
1193.69	293	904	1.561660
1194.69	292	877.5	1.561601
1195.69	291	929	1.561541
1196.69	290	991.5	1.561482
1197.69	289	957.5	1.561423
1198.69	288	982.5	1.561363
1199.69	287	1102.5	1.561304
1200.69	286	1236.5	1.561245
1201.69	285	1421.5	1.561186
1202.69	284	1044	1.561126
1203.69	283	957	1.561067
1204.69	282	880.5	1.561008
1205.69	281	867.5	1.560948
1206.69	280	894.5	1.560889
1207.69	279	869.5	1.560830
1208.69	278	901.5	1.560770
1209.69	277	883	1.560711
1210.69	276	830	1.560652
1211.69	275	872.5	1.560593
1212.69	274	903	1.560533
1213.69	273	896.5	1.560474
1214.69	272	881.5	1.560415
1215.69	271	910.5	1.560355
1216.69	270	924.5	1.560296
1217.69	269	920.5	1.560237
1218.69	268	926.5	1.560178
1219.69	267	923	1.560118
1220.69	266	895.5	1.560059
1221.69	265	905	1.560000
1222.69	264	882	1.559940
1223.69	263	902.5	1.559881
1224.69	262	908.5	1.559822
1225.69	261	906	1.559763
1226.69	260	895	1.559703
1227.69	259	907	1.559644
1228.69	258	921.5	1.559585
1229.69	257	925.5	1.559525
1230.69	256	935	1.559466
1231.69	255	920	1.559407
1232.69	254	948	1.559348
1233.69	253	936	1.559288
1234.69	252	894	1.559229
1235.69	251	925	1.559170
1236.69	250	893.5	1.559076
1237.69	249	912	1.558970
1238.69	248	917	1.558865
1239.69	247	918	1.558759
1240.69	246	928	1.558654
1241.69	245	963	1.558548
1242.69	244	901	1.558443
1243.69	243	942.5	1.558337
1244.69	242	904.5	1.558232
1245.69	241	954.5	1.558126
1246.69	240	915	1.558020
1247.69	239	957	1.557915
1248.69	238	930	1.557809
1249.69	237	936	1.557704
1250.69	236	988	1.557598
1251.69	235	956.5	1.557493
1252.69	234	940.5	1.557387
1253.69	233	943	1.557282
1254.69	232	931.5	1.557176
1255.69	231	931.5	1.557071
1256.69	230	938.5	1.556965
1257.69	229	965.5	1.556860
1258.69	228	913.5	1.556754
1259.69	227	978	1.556649
1260.69	226	978	1.556543
1261.69	225	944	1.556438
1262.69	224	964.5	1.556332
1263.69	223	960.5	1.556227
1264.69	222	956.5	1.556121
1265.69	221	963.5	1.556016
1266.69	220	929	1.555910
1267.69	219	910	1.555805
1268.69	218	956.5	1.555699
1269.69	217	942	1.555593
1270.69	216	950.5	1.555488
1271.69	215	955.5	1.555382
1272.69	214	978	1.555277
1273.69	213	972	1.555171
1274.69	212	950	1.555066
1275.69	211	954	1.554960
1276.69	210	962.5	1.554855
1277.69	209	1029	1.554749
1278.69	208	979.5	1.554644
1279.69	207	962	1.554538
1280.69	206	982	1.554433
1281.69	205	956.5	1.554327
1282.69	204	991	1.554222
1283.69	203	991	1.554116
1284.69	202	979	1.554011
1285.69	201	1038.5	1.553905
1286.69	200	1021.5	1.553800
1287.69	199	1019.5	1.553694
1288.69	198	1032.5	1.553589
1289.69	197	1011.5	1.553483
1290.69	196	992	1.553378
1291.69	195	978.5	1.553272
1292.69	194	991	1.553166
1293.69	193	977	1.553061
1294.69	192	989.5	1.552955
1295.69	191	995	1.552850
1296.69	190	1006.5	1.552744
1297.69	189	988.5	1.552639
1298.69	188	987	1.552533
1299.69	187	1028	1.552428
1300.69	186	1038	1.552322
1301.69	185	996.5	1.552217
1302.69	184	993.5	1.552111
1303.69	183	1009.5	1.552006
1304.69	182	994	1.551900
1305.69	181	1002.5	1.551795
1306.69	180	1001.5	1.551689
1307.69	179	1017	1.551584
1308.69	178	1041	1.551478
1309.69	177	1004	1.551373
1310.69	176	1021	1.551267
1311.69	175	989	1.551162
1312.69	174	1002.5	1.551056
1313.69	173	1003.5	1.550951
1314.69	172	1030	1.550845
1315.69	171	1019.5	1.550739
1316.69	170	1034	1.550634
1317.69	169	1031	1.550528
1318.69	168	1026.5	1.550423
1319.69	167	998	1.550317
1320.69	166	1057.5	1.550212
1321.69	165	1035.5	1.550106
1322.69	164	1045	1.550001
1323.69	163	1024.5	1.549895
1324.69	162	1060	1.549790
1325.69	161	1042	1.549684
1326.69	160	1052	1.549579
1327.69	159	1024	1.549473
1328.69	158	1051	1.549368
1329.69	157	1041.5	1.549038
1330.69	156	1069.5	1.547996
1331.69	155	1089	1.546954
1332.69	154	1029.5	1.545913
1333.69	153	1080	1.544871
1334.69	152	1093.5	1.543830
1335.69	151	1068.5	1.542788
1336.69	150	1096.5	1.541747
1337.69	149	1051	1.540705
1338.69	148	1082.5	1.539663
1339.69	147	1083	1.538622
1340.69	146	1101	1.537580
1341.69	145	1066	1.536539
1342.69	144	1081.5	1.535497
1343.69	143	1052	1.534456
1344.69	142	1093	1.533414
1345.69	141	1091.5	1.532372
1346.69	140	1137.5	1.531331
1347.69	139	1146	1.530289
1348.69	138	1143	1.529248
1349.69	137	1131	1.528206
1350.69	136	1096	1.527165
1351.69	135	1069.5	1.526123
1352.69	134	1129	1.525081
1353.69	133	1100	1.524040
1354.69	132	1063.5	1.522998
1355.69	131	1087.5	1.521957
1356.69	130	1127	1.520915
1357.69	129	1154	1.519874
1358.69	128	1158	1.518832
1359.69	127	1267.5	1.517790
1360.69	126	1313.5	1.516749
1361.69	125	1403	1.515707
1362.69	124	1469	1.514666
1363.69	123	1461.5	1.513624
1364.69	122	1317	1.512583
1365.69	121	1198.5	1.511541
1366.69	120	1144	1.510499
1367.69	119	1068.5	1.509458
1368.69	118	1034.5	1.508416
1369.69	117	1016.5	1.507375
1370.69	116	1033.5	1.506333
1371.69	115	988.5	1.505292
1372.69	114	1035	1.504250
1373.69	113	1076	1.503208
1374.69	112	1048.5	1.502167
1375.69	111	1014.5	1.501125
1376.69	110	1046	1.500084
1377.69	109	1061.5	1.499042
1378.69	108	1069	1.498001
1379.69	107	1079	1.496959
1380.69	106	1080.5	1.495917
1381.69	105	1090.5	1.494876
1382.69	104	1084	1.493834
1383.69	103	1123.5	1.492793
1384.69	102	1099.5	1.491751
1385.69	101	1130	1.490710
1386.69	100	1092.5	1.489668
1387.69	99	1158	1.488626
1388.69	98	1119.5	1.487585
1389.69	97	1195.5	1.486543
1390.69	96	1179.5	1.485502
1391.69	95	1155.5	1.484460
1392.69	94	1183	1.483419
1393.69	93	1191.5	1.482377
1394.69	92	1231	1.481335
1395.69	91	1217.5	1.480294
1396.69	90	1264.5	1.479252
1397.69	89	1269.5	1.478211
1398.69	88	1310.5	1.477169
1399.69	87	1323.5	1.476128
1400.69	86	1382.5	1.475086
1401.69	85	1400	1.474044
1402.69	84	1363	1.473003
1403.69	83	1375	1.471961
1404.69	82	1410	1.470920
1405.69	81	1422	1.469878
1406.69	80	1529	1.468837
1407.69	79	1481.5	1.467795
1408.69	78	1400.5	1.466754
1409.69	77	1343.5	1.465712
1410.69	76	1163	1.464670
1411.69	75	1101	1.463629
1412.69	74	1027.5	1.462587
1413.69	73	948	1.461546
1414.69	72	894	1.460504
1415.69	71	831.5	1.459463
1416.69	70	765.5	1.458421
1417.69	69	729	1.457379
1418.69	68	693	1.456338
1419.69	67	658	1.455296
1420.69	66	619	1.454255
1421.69	65	607	1.453213
1422.69	64	593	1.452172
1423.69	63	599	1.451130
1424.69	62	567	1.450088
1425.69	61	602	1.449047
1426.69	60	567.5	1.448005
1427.69	59	548.5	1.446964
1428.69	58	622.5	1.445922
1429.69	57	538	1.444881
1430.69	56	587	1.443839
1431.69	55	552.5	1.442797
1432.69	54	578.5	1.441756
1433.69	53	595.5	1.440714
1434.69	52	605	1.439673
1435.69	51	605.5	1.438631
1436.69	50	598	1.437590
1437.69	49	630	1.436548
1438.69	48	623.5	1.435506
1439.69	47	664.5	1.434465
1440.69	46	652	1.433423
1441.69	45	675	1.432382
1442.69	44	676.5	1.431340
1443.69	43	661.5	1.430299
1444.69	42	626	1.429257
1445.69	41	640.5	1.428215
1446.69	40	651.5	1.427174
1447.69	39	701	1.426132
1448.69	38	727.5	1.425091
1449.69	37	681	1.424049
1450.69	36	688.5	1.423008
1451.69	35	690	1.421966
1452.69	34	696.5	1.420924
1453.69	33	626.5	1.419883
1454.69	32	594.5	1.418841
1455.69	31	610	1.417800
1456.69	30	592.5	1.416758
1457.69	29	652	1.415717
1458.69	28	797	1.414675
1459.69	27	1089.5	1.413633
1460.69	26	1013.5	1.412592
1461.69	25	669.5	1.411550
1462.69	24	573	1.410509
1463.69	23	686	1.410446
1464.69	22	789	1.410446
1465.69	21	946.5	1.410446
1466.69	20	1986.5	1.410446
1467.69	19	5221.5	1.410446
1468.69	18	6342.5	1.410446
1469.69	17	2341.5	1.410446
1470.69	16	489.5	1.410446
1471.69	15	120	1.410446
1472.69	14	77.5	1.410446
1473.69	13	55.5	1.410446
1474.69	12	73	1.410446
1475.69	11	74	1.410446
1476.69	10	114	1.410446
1477.69	9.000000	173	1.410446
1478.69	8.000000	213.5	1.410446
1479.69	7.000000	254	1.410446
1480.69	6.000000	240.5	1.410446
1481.69	5.000000	263	1.410446
1482.69	4.000000	236	1.410446
1483.69	3.000000	83	1.410446
1484.69	2.000000	14.5	1.410446
1485.69	1.000000	9.500000	1.410446
1486.69	0.000000	9.000000	1.410446
1487.69	-1.000000	6.000000	1.410446
1488.69	-2.000000	2.000000	1.410446
1489.69	-3.000000	4.000000	1.410446
1490.69	-4.000000	4.000000	1.410446
1491.69	-5.000000	2.500000	1.410446