File: KHU_project/ITOwide/wide_pe80
Dataset wide_80:3(ito)
Dwell Time (s)	0.100000
Number of sweeps	10
Kinetic Energy(eV)	Binding Energy(eV)	Intensity(cps)	Transmission Value
286.69	1200	8554	3.522864
287.69	1199	8683	3.523643
288.69	1198	8746	3.524423
289.69	1197	8787	3.525202
290.69	1196	8788	3.525982
291.69	1195	8808	3.526761
292.69	1194	8794	3.527541
293.69	1193	8858	3.528321
294.69	1192	8926	3.529100
295.69	1191	8754	3.529880
296.69	1190	8832	3.530659
297.69	1189	8702	3.531439
298.69	1188	8860	3.532218
299.69	1187	8750	3.532998
300.69	1186	8757	3.533777
301.69	1185	8800	3.534557
302.69	1184	8730	3.535337
303.69	1183	8745	3.536116
304.69	1182	8663	3.536896
305.69	1181	8571	3.537675
306.69	1180	8556	3.538455
307.69	1179	8533	3.539234
308.69	1178	8543	3.540014
309.69	1177	8648	3.540794
310.69	1176	8618	3.541573
311.69	1175	8643	3.542353
312.69	1174	8666	3.543132
313.69	1173	8728	3.543912
314.69	1172	8720	3.544691
315.69	1171	8669	3.545471
316.69	1170	8867	3.546250
317.69	1169	8815	3.547030
318.69	1168	8894	3.547810
319.69	1167	8849	3.548589
320.69	1166	8866	3.549369
321.69	1165	8852	3.550148
322.69	1164	8983	3.550928
323.69	1163	9010	3.551707
324.69	1162	9015	3.552487
325.69	1161	8987	3.553267
326.69	1160	9093	3.554046
327.69	1159	9176	3.554826
328.69	1158	9383	3.555983
329.69	1157	9202	3.557606
330.69	1156	9244	3.559230
331.69	1155	9311	3.560853
332.69	1154	9133	3.562477
333.69	1153	9225	3.564101
334.69	1152	9195	3.565724
335.69	1151	9210	3.567348
336.69	1150	9260	3.568972
337.69	1149	9217	3.570595
338.69	1148	9103	3.572219
339.69	1147	9092	3.573843
340.69	1146	9127	3.575466
341.69	1145	9058	3.577090
342.69	1144	8989	3.578713
343.69	1143	9038	3.580337
344.69	1142	8840	3.581961
345.69	1141	8734	3.583584
346.69	1140	8887	3.585208
347.69	1139	8477	3.586832
348.69	1138	8533	3.588455
349.69	1137	8402	3.590079
350.69	1136	8454	3.591703
351.69	1135	8322	3.593326
352.69	1134	8262	3.594950
353.69	1133	8130	3.596573
354.69	1132	8191	3.598197
355.69	1131	8083	3.599821
356.69	1130	8049	3.601444
357.69	1129	8144	3.603068
358.69	1128	7978	3.604692
359.69	1127	8068	3.606315
360.69	1126	8077	3.607939
361.69	1125	8123	3.609563
362.69	1124	8047	3.611186
363.69	1123	8049	3.612810
364.69	1122	8233	3.614433
365.69	1121	8156	3.616057
366.69	1120	8153	3.617681
367.69	1119	8195	3.619304
368.69	1118	8140	3.620928
369.69	1117	8187	3.622552
370.69	1116	8397	3.624175
371.69	1115	8538	3.625799
372.69	1114	8244	3.627423
373.69	1113	8190	3.629046
374.69	1112	8380	3.630670
375.69	1111	8523	3.632293
376.69	1110	8435	3.633917
377.69	1109	8436	3.635541
378.69	1108	8463	3.637164
379.69	1107	8573	3.638788
380.69	1106	8617	3.640412
381.69	1105	8513	3.642035
382.69	1104	8676	3.643659
383.69	1103	8632	3.645283
384.69	1102	8628	3.646906
385.69	1101	8566	3.648530
386.69	1100	8745	3.650153
387.69	1099	8650	3.651777
388.69	1098	8565	3.653401
389.69	1097	8549	3.655024
390.69	1096	8494	3.656648
391.69	1095	8680	3.658272
392.69	1094	8703	3.659895
393.69	1093	8975	3.661519
394.69	1092	9067	3.663143
395.69	1091	9633	3.664766
396.69	1090	9986	3.666390
397.69	1089	10862	3.668014
398.69	1088	12075	3.669637
399.69	1087	12528	3.671261
400.69	1086	12752	3.672884
401.69	1085	12048	3.674508
402.69	1084	11057	3.676132
403.69	1083	10207	3.677755
404.69	1082	9785	3.679379
405.69	1081	9989	3.681003
406.69	1080	10283	3.682626
407.69	1079	9965	3.684250
408.69	1078	9295	3.685874
409.69	1077	8283	3.687497
410.69	1076	7543	3.689121
411.69	1075	6992	3.690744
412.69	1074	6886	3.692368
413.69	1073	6722	3.693992
414.69	1072	6748	3.695615
415.69	1071	6649	3.697239
416.69	1070	6748	3.698863
417.69	1069	6877	3.700486
418.69	1068	6861	3.702110
419.69	1067	6936	3.703734
420.69	1066	6915	3.705357
421.69	1065	6860	3.706981
422.69	1064	6907	3.708604
423.69	1063	7032	3.710228
424.69	1062	7142	3.711852
425.69	1061	7246	3.713475
426.69	1060	7218	3.715099
427.69	1059	7028	3.716723
428.69	1058	6880	3.718346
429.69	1057	6696	3.719970
430.69	1056	6702	3.721594
431.69	1055	6816	3.723217
432.69	1054	6795	3.724841
433.69	1053	6717	3.726464
434.69	1052	6606	3.728088
435.69	1051	6434	3.729712
436.69	1050	6459	3.731335
437.69	1049	6432	3.732959
438.69	1048	6301	3.734583
439.69	1047	6402	3.736206
440.69	1046	6252	3.737830
441.69	1045	6334	3.739454
442.69	1044	6430	3.741077
443.69	1043	6296	3.742701
444.69	1042	6415	3.744324
445.69	1041	6455	3.745948
446.69	1040	6410	3.747572
447.69	1039	6479	3.749195
448.69	1038	6450	3.750819
449.69	1037	6398	3.752443
450.69	1036	6445	3.754066
451.69	1035	6481	3.755690
452.69	1034	6501	3.757314
453.69	1033	6521	3.758937
454.69	1032	6519	3.760561
455.69	1031	6541	3.762184
456.69	1030	6699	3.763635
457.69	1029	6688	3.764997
458.69	1028	6641	3.766359
459.69	1027	6635	3.767720
460.69	1026	6694	3.769082
461.69	1025	6579	3.770444
462.69	1024	6553	3.771805
463.69	1023	6695	3.773167
464.69	1022	6743	3.774529
465.69	1021	6814	3.775890
466.69	1020	6827	3.777252
467.69	1019	6743	3.778614
468.69	1018	6843	3.779976
469.69	1017	6860	3.781337
470.69	1016	6963	3.782699
471.69	1015	6858	3.784061
472.69	1014	6910	3.785422
473.69	1013	6920	3.786784
474.69	1012	7081	3.788146
475.69	1011	7058	3.789507
476.69	1010	6983	3.790869
477.69	1009	7035	3.792231
478.69	1008	6985	3.793593
479.69	1007	7138	3.794954
480.69	1006	6981	3.796316
481.69	1005	7087	3.797678
482.69	1004	7106	3.799039
483.69	1003	7151	3.800401
484.69	1002	7147	3.801763
485.69	1001	7060	3.803124
486.69	1000	7268	3.804486
487.69	999	7276	3.805848
488.69	998	7456	3.807209
489.69	997	7468	3.808571
490.69	996	7573	3.809933
491.69	995	7664	3.811295
492.69	994	7585	3.812656
493.69	993	7578	3.814018
494.69	992	7351	3.815380
495.69	991	7217	3.816741
496.69	990	7315	3.818103
497.69	989	7389	3.819465
498.69	988	7254	3.820826
499.69	987	7302	3.822188
500.69	986	7208	3.823550
501.69	985	7184	3.824912
502.69	984	7321	3.826273
503.69	983	7424	3.827635
504.69	982	7311	3.828997
505.69	981	7410	3.830358
506.69	980	7536	3.831720
507.69	979	7643	3.833082
508.69	978	7913	3.834443
509.69	977	8265	3.835805
510.69	976	8871	3.837167
511.69	975	9299	3.838528
512.69	974	9035	3.839890
513.69	973	8359	3.841252
514.69	972	7897	3.842614
515.69	971	7651	3.843975
516.69	970	7338	3.845337
517.69	969	7387	3.846699
518.69	968	7142	3.848060
519.69	967	7150	3.849422
520.69	966	6847	3.850784
521.69	965	6811	3.852145
522.69	964	6717	3.853507
523.69	963	6673	3.854869
524.69	962	6731	3.856230
525.69	961	6645	3.857592
526.69	960	6648	3.858954
527.69	959	6706	3.860316
528.69	958	6644	3.861677
529.69	957	6759	3.863039
530.69	956	6794	3.864401
531.69	955	6866	3.865762
532.69	954	6835	3.867124
533.69	953	6969	3.868486
534.69	952	6852	3.869847
535.69	951	6780	3.871209
536.69	950	6859	3.872571
537.69	949	6870	3.873933
538.69	948	6864	3.875294
539.69	947	6805	3.876656
540.69	946	6909	3.878018
541.69	945	6966	3.879379
542.69	944	7019	3.880741
543.69	943	6934	3.882103
544.69	942	6998	3.883464
545.69	941	6985	3.884826
546.69	940	7018	3.886188
547.69	939	7016	3.887549
548.69	938	7044	3.888911
549.69	937	6993	3.890273
550.69	936	6956	3.891635
551.69	935	7136	3.892996
552.69	934	7058	3.894358
553.69	933	7258	3.895720
554.69	932	7205	3.897081
555.69	931	7283	3.898443
556.69	930	7191	3.899805
557.69	929	7201	3.901166
558.69	928	7085	3.902528
559.69	927	7282	3.903890
560.69	926	7166	3.905252
561.69	925	7262	3.906613
562.69	924	7306	3.907975
563.69	923	7163	3.909337
564.69	922	7193	3.910698
565.69	921	7340	3.912060
566.69	920	7438	3.913422
567.69	919	7353	3.914783
568.69	918	7338	3.916145
569.69	917	7323	3.917507
570.69	916	7384	3.918868
571.69	915	7376	3.920230
572.69	914	7377	3.921592
573.69	913	7360	3.922954
574.69	912	7451	3.924315
575.69	911	7347	3.925677
576.69	910	7495	3.927039
577.69	909	7501	3.928400
578.69	908	7548	3.929762
579.69	907	7644	3.931124
580.69	906	7516	3.932485
581.69	905	7496	3.933847
582.69	904	7471	3.935209
583.69	903	7622	3.936571
584.69	902	7640	3.937932
585.69	901	7594	3.939294
586.69	900	7667	3.940656
587.69	899	7845	3.942017
588.69	898	7743	3.943379
589.69	897	7679	3.944741
590.69	896	7917	3.946102
591.69	895	7825	3.947464
592.69	894	7821	3.948826
593.69	893	7801	3.950187
594.69	892	7997	3.951549
595.69	891	7922	3.952911
596.69	890	7737	3.954273
597.69	889	8053	3.955634
598.69	888	7912	3.956996
599.69	887	7896	3.958358
600.69	886	8028	3.959719
601.69	885	8044	3.961081
602.69	884	8063	3.962443
603.69	883	7926	3.963804
604.69	882	8126	3.965166
605.69	881	7995	3.966528
606.69	880	8001	3.967890
607.69	879	8097	3.969251
608.69	878	8055	3.970613
609.69	877	7997	3.971975
610.69	876	8197	3.973336
611.69	875	8273	3.974698
612.69	874	8235	3.976060
613.69	873	8141	3.977421
614.69	872	8214	3.978783
615.69	871	8204	3.980145
616.69	870	8361	3.981506
617.69	869	8172	3.982868
618.69	868	8270	3.984230
619.69	867	8294	3.985592
620.69	866	8254	3.986953
621.69	865	8323	3.988315
622.69	864	8405	3.989677
623.69	863	8367	3.991038
624.69	862	8496	3.992400
625.69	861	8397	3.993762
626.69	860	8553	3.995123
627.69	859	8515	3.996485
628.69	858	8454	3.997847
629.69	857	8602	3.999209
630.69	856	8590	4.000570
631.69	855	8613	4.001932
632.69	854	8595	4.003294
633.69	853	8563	4.004655
634.69	852	8567	4.006017
635.69	851	8753	4.007379
636.69	850	8783	4.008740
637.69	849	8774	4.010102
638.69	848	8659	4.011464
639.69	847	8874	4.012825
640.69	846	8940	4.014187
641.69	845	9026	4.015549
642.69	844	8846	4.016911
643.69	843	8935	4.018272
644.69	842	8869	4.019634
645.69	841	9068	4.020996
646.69	840	8890	4.022357
647.69	839	9140	4.023719
648.69	838	9000	4.025081
649.69	837	8954	4.026442
650.69	836	8995	4.027804
651.69	835	9238	4.029166
652.69	834	9302	4.030528
653.69	833	9334	4.031889
654.69	832	9635	4.033251
655.69	831	9688	4.034613
656.69	830	9839	4.035974
657.69	829	10100	4.037336
658.69	828	10111	4.038698
659.69	827	9975	4.040059
660.69	826	9999	4.041421
661.69	825	9886	4.042783
662.69	824	9663	4.044144
663.69	823	9515	4.045506
664.69	822	9529	4.046868
665.69	821	9374	4.047665
666.69	820	9349	4.048280
667.69	819	9124	4.048895
668.69	818	9185	4.049510
669.69	817	9272	4.050125
670.69	816	9281	4.050740
671.69	815	9157	4.051355
672.69	814	9150	4.051970
673.69	813	9225	4.052585
674.69	812	9109	4.053199
675.69	811	9321	4.053814
676.69	810	9213	4.054429
677.69	809	9379	4.055044
678.69	808	9421	4.055659
679.69	807	9233	4.056274
680.69	806	9351	4.056889
681.69	805	9244	4.057504
682.69	804	9264	4.058119
683.69	803	9283	4.058734
684.69	802	9297	4.059348
685.69	801	9386	4.059963
686.69	800	9238	4.060578
687.69	799	9350	4.061193
688.69	798	9437	4.061808
689.69	797	9422	4.062423
690.69	796	9426	4.063038
691.69	795	9318	4.063653
692.69	794	9594	4.064268
693.69	793	9552	4.064883
694.69	792	9659	4.065497
695.69	791	9562	4.066112
696.69	790	9588	4.066727
697.69	789	9523	4.067342
698.69	788	9746	4.067957
699.69	787	9729	4.068572
700.69	786	9629	4.069187
701.69	785	9827	4.069802
702.69	784	9868	4.070417
703.69	783	9696	4.071032
704.69	782	9867	4.071646
705.69	781	9882	4.072261
706.69	780	9861	4.072876
707.69	779	10048	4.073491
708.69	778	9991	4.074106
709.69	777	9849	4.074721
710.69	776	10022	4.075336
711.69	775	9987	4.075951
712.69	774	10090	4.076566
713.69	773	10017	4.077181
714.69	772	9961	4.077795
715.69	771	10136	4.078410
716.69	770	10220	4.079025
717.69	769	10249	4.079640
718.69	768	10108	4.080255
719.69	767	10004	4.080870
720.69	766	10234	4.081485
721.69	765	10385	4.082100
722.69	764	10441	4.082715
723.69	763	10460	4.083329
724.69	762	10349	4.083944
725.69	761	10611	4.084559
726.69	760	10947	4.085174
727.69	759	11025	4.085789
728.69	758	11140	4.086404
729.69	757	10881	4.087019
730.69	756	10611	4.087634
731.69	755	10661	4.088249
732.69	754	10666	4.088864
733.69	753	10633	4.089478
734.69	752	10649	4.090093
735.69	751	10629	4.090708
736.69	750	10534	4.091323
737.69	749	10420	4.091938
738.69	748	10472	4.092553
739.69	747	10728	4.093168
740.69	746	10890	4.093783
741.69	745	10839	4.094398
742.69	744	10842	4.095013
743.69	743	10837	4.095627
744.69	742	10797	4.096242
745.69	741	10941	4.096857
746.69	740	11068	4.097472
747.69	739	10906	4.098087
748.69	738	11224	4.098702
749.69	737	10992	4.099317
750.69	736	11164	4.099932
751.69	735	11146	4.100547
752.69	734	11183	4.101162
753.69	733	11404	4.101776
754.69	732	11413	4.102391
755.69	731	11316	4.103006
756.69	730	11354	4.103621
757.69	729	11288	4.104236
758.69	728	11514	4.104851
759.69	727	11398	4.105466
760.69	726	11463	4.106081
761.69	725	11405	4.106696
762.69	724	11578	4.107311
763.69	723	11631	4.107925
764.69	722	11681	4.108540
765.69	721	11849	4.109155
766.69	720	11797	4.109770
767.69	719	12161	4.110385
768.69	718	12677	4.111000
769.69	717	12860	4.111615
770.69	716	12752	4.112230
771.69	715	12075	4.112845
772.69	714	11898	4.113460
773.69	713	11626	4.114074
774.69	712	11518	4.114689
775.69	711	11711	4.115304
776.69	710	11549	4.115919
777.69	709	11897	4.116534
778.69	708	12383	4.117149
779.69	707	13289	4.117764
780.69	706	15077	4.118379
781.69	705	16926	4.118994
782.69	704	17903	4.119608
783.69	703	15884	4.120223
784.69	702	13419	4.120838
785.69	701	12495	4.121453
786.69	700	11823	4.122068
787.69	699	11599	4.122683
788.69	698	11476	4.123298
789.69	697	11216	4.123913
790.69	696	11251	4.124528
791.69	695	11331	4.125143
792.69	694	11264	4.125757
793.69	693	11150	4.126372
794.69	692	11082	4.126987
795.69	691	11163	4.127602
796.69	690	11372	4.128217
797.69	689	11447	4.128832
798.69	688	11452	4.129447
799.69	687	11382	4.130062
800.69	686	11602	4.130677
801.69	685	11708	4.131292
802.69	684	11823	4.131906
803.69	683	11681	4.132521
804.69	682	11586	4.133136
805.69	681	11489	4.133751
806.69	680	11346	4.134366
807.69	679	11516	4.134981
808.69	678	11287	4.135596
809.69	677	11317	4.136211
810.69	676	11225	4.136826
811.69	675	11073	4.137441
812.69	674	11195	4.138055
813.69	673	11351	4.138670
814.69	672	11402	4.139285
815.69	671	12096	4.139900
816.69	670	13025	4.140515
817.69	669	15234	4.141130
818.69	668	18817	4.141745
819.69	667	23168	4.142360
820.69	666	23927	4.142975
821.69	665	19764	4.143590
822.69	664	15317	4.144204
823.69	663	12652	4.144819
824.69	662	11521	4.145434
825.69	661	10768	4.146049
826.69	660	10261	4.146664
827.69	659	10200	4.147279
828.69	658	9868	4.147894
829.69	657	9827	4.148509
830.69	656	9768	4.149124
831.69	655	9557	4.149739
832.69	654	9517	4.150353
833.69	653	9543	4.150968
834.69	652	9619	4.151583
835.69	651	9630	4.152198
836.69	650	9721	4.152813
837.69	649	9650	4.153428
838.69	648	9667	4.154043
839.69	647	9650	4.154658
840.69	646	9628	4.155273
841.69	645	9566	4.155888
842.69	644	9506	4.156502
843.69	643	9677	4.157117
844.69	642	9742	4.157732
845.69	641	9661	4.158347
846.69	640	9773	4.158962
847.69	639	9661	4.159577
848.69	638	9645	4.160192
849.69	637	9671	4.160807
850.69	636	9842	4.161422
851.69	635	9850	4.162036
852.69	634	9681	4.162651
853.69	633	9597	4.163266
854.69	632	9792	4.163881
855.69	631	9875	4.164496
856.69	630	9770	4.165111
857.69	629	9999	4.165726
858.69	628	9934	4.166341
859.69	627	9838	4.166956
860.69	626	10074	4.167571
861.69	625	9891	4.168185
862.69	624	9994	4.168800
863.69	623	10044	4.169415
864.69	622	10160	4.170030
865.69	621	10267	4.170645
866.69	620	10170	4.171260
867.69	619	10120	4.171875
868.69	618	10165	4.172490
869.69	617	10143	4.173105
870.69	616	10229	4.173720
871.69	615	10220	4.174334
872.69	614	10485	4.174949
873.69	613	10237	4.175564
874.69	612	10547	4.176179
875.69	611	10483	4.176794
876.69	610	10408	4.177409
877.69	609	10206	4.178024
878.69	608	10485	4.178639
879.69	607	10520	4.179254
880.69	606	10299	4.179869
881.69	605	10662	4.180483
882.69	604	10535	4.181098
883.69	603	10499	4.181713
884.69	602	10504	4.182328
885.69	601	10589	4.182943
886.69	600	10746	4.183558
887.69	599	10705	4.183648
888.69	598	10727	4.183692
889.69	597	10706	4.183736
890.69	596	10840	4.183780
891.69	595	10735	4.183824
892.69	594	10797	4.183868
893.69	593	10901	4.183912
894.69	592	10701	4.183955
895.69	591	10929	4.183999
896.69	590	10997	4.184043
897.69	589	10997	4.184087
898.69	588	11165	4.184131
899.69	587	11048	4.184175
900.69	586	10998	4.184219
901.69	585	11173	4.184263
902.69	584	11133	4.184307
903.69	583	11141	4.184351
904.69	582	11087	4.184394
905.69	581	11234	4.184438
906.69	580	11197	4.184482
907.69	579	11181	4.184526
908.69	578	11201	4.184570
909.69	577	11411	4.184614
910.69	576	11408	4.184658
911.69	575	11305	4.184702
912.69	574	11498	4.184746
913.69	573	11428	4.184790
914.69	572	11662	4.184833
915.69	571	11715	4.184877
916.69	570	11645	4.184921
917.69	569	11661	4.184965
918.69	568	11427	4.185009
919.69	567	11529	4.185053
920.69	566	11560	4.185097
921.69	565	11662	4.185141
922.69	564	11476	4.185185
923.69	563	11559	4.185229
924.69	562	11554	4.185273
925.69	561	11800	4.185316
926.69	560	11651	4.185360
927.69	559	11697	4.185404
928.69	558	11826	4.185448
929.69	557	12010	4.185492
930.69	556	12095	4.185536
931.69	555	12277	4.185580
932.69	554	12202	4.185624
933.69	553	12362	4.185668
934.69	552	12309	4.185712
935.69	551	12602	4.185755
936.69	550	12351	4.185799
937.69	549	12638	4.185843
938.69	548	12633	4.185887
939.69	547	12720	4.185931
940.69	546	12373	4.185975
941.69	545	12097	4.186019
942.69	544	11802	4.186063
943.69	543	11660	4.186107
944.69	542	11543	4.186151
945.69	541	11707	4.186194
946.69	540	11498	4.186238
947.69	539	11332	4.186282
948.69	538	11541	4.186326
949.69	537	11493	4.186370
950.69	536	11504	4.186414
951.69	535	11572	4.186458
952.69	534	12415	4.186502
953.69	533	14737	4.186546
954.69	532	19871	4.186590
955.69	531	27490	4.186634
956.69	530	23319	4.186677
957.69	529	12598	4.186721
958.69	528	11303	4.186765
959.69	527	10964	4.186809
960.69	526	10990	4.186853
961.69	525	10925	4.186897
962.69	524	11003	4.186941
963.69	523	11098	4.186985
964.69	522	11002	4.187029
965.69	521	11031	4.187073
966.69	520	11053	4.187116
967.69	519	10974	4.187160
968.69	518	11197	4.187204
969.69	517	11223	4.187248
970.69	516	11309	4.187292
971.69	515	11318	4.187336
972.69	514	11296	4.187380
973.69	513	11478	4.187424
974.69	512	11262	4.187468
975.69	511	11446	4.187512
976.69	510	11428	4.187555
977.69	509	11355	4.187599
978.69	508	11341	4.187643
979.69	507	11754	4.187687
980.69	506	11543	4.187731
981.69	505	11537	4.187775
982.69	504	11623	4.187819
983.69	503	11678	4.187863
984.69	502	11688	4.187907
985.69	501	11565	4.187951
986.69	500	11536	4.187995
987.69	499	11467	4.188038
988.69	498	11940	4.188082
989.69	497	13485	4.188126
990.69	496	16237	4.188170
991.69	495	15854	4.188214
992.69	494	11956	4.188258
993.69	493	11309	4.188302
994.69	492	11074	4.188346
995.69	491	11264	4.188390
996.69	490	11514	4.188434
997.69	489	12845	4.188477
998.69	488	16743	4.188521
999.69	487	19292	4.188565
1000.69	486	13868	4.188609
1001.69	485	11463	4.188653
1002.69	484	11130	4.188697
1003.69	483	11179	4.188741
1004.69	482	11190	4.188785
1005.69	481	11341	4.188829
1006.69	480	11308	4.188873
1007.69	479	11279	4.188916
1008.69	478	11423	4.188960
1009.69	477	11468	4.189004
1010.69	476	11571	4.189048
1011.69	475	11627	4.189092
1012.69	474	11982	4.189136
1013.69	473	12124	4.189180
1014.69	472	12476	4.189224
1015.69	471	12697	4.189268
1016.69	470	12530	4.189312
1017.69	469	12344	4.189356
1018.69	468	12308	4.189399
1019.69	467	12114	4.189443
1020.69	466	12189	4.189487
1021.69	465	12486	4.189531
1022.69	464	12450	4.189575
1023.69	463	12032	4.189619
1024.69	462	11628	4.189663
1025.69	461	10975	4.189707
1026.69	460	10691	4.189751
1027.69	459	10340	4.189795
1028.69	458	9992	4.189838
1029.69	457	9835	4.189882
1030.69	456	10187	4.189926
1031.69	455	13103	4.189970
1032.69	454	26594	4.190014
1033.69	453	57162	4.190058
1034.69	452	48854	4.190102
1035.69	451	11440	4.190332
1036.69	450	7160	4.190644
1037.69	449	6500	4.190955
1038.69	448	8178	4.191267
1039.69	447	18080	4.191579
1040.69	446	51188	4.191891
1041.69	445	88217	4.192203
1042.69	444	31591	4.192514
1043.69	443	6417	4.192826
1044.69	442	3700	4.193138
1045.69	441	2803	4.193450
1046.69	440	2399	4.193761
1047.69	439	2243	4.194073
1048.69	438	2105	4.194385
1049.69	437	2049	4.194697
1050.69	436	2043	4.195008
1051.69	435	1968	4.195320
1052.69	434	2034	4.195632
1053.69	433	1864	4.195944
1054.69	432	1945	4.196256
1055.69	431	1991	4.196567
1056.69	430	1892	4.196879
1057.69	429	1930	4.197191
1058.69	428	1941	4.197503
1059.69	427	1871	4.197814
1060.69	426	1946	4.198126
1061.69	425	1918	4.198438
1062.69	424	1927	4.198750
1063.69	423	1862	4.199061
1064.69	422	1853	4.199373
1065.69	421	1843	4.199685
1066.69	420	1942	4.199997
1067.69	419	1883	4.200309
1068.69	418	1880	4.200620
1069.69	417	1901	4.200932
1070.69	416	1936	4.201244
1071.69	415	1862	4.201556
1072.69	414	1872	4.201867
1073.69	413	1881	4.202179
1074.69	412	1892	4.202491
1075.69	411	1897	4.202803
1076.69	410	1939	4.203114
1077.69	409	1956	4.203426
1078.69	408	1918	4.203738
1079.69	407	1940	4.204050
1080.69	406	1982	4.204362
1081.69	405	1910	4.204673
1082.69	404	1946	4.204985
1083.69	403	1936	4.205297
1084.69	402	1900	4.205609
1085.69	401	1983	4.205920
1086.69	400	1913	4.206232
1087.69	399	1984	4.206544
1088.69	398	2008	4.206856
1089.69	397	1984	4.207167
1090.69	396	2011	4.207479
1091.69	395	1911	4.207791
1092.69	394	1985	4.208103
1093.69	393	1991	4.208414
1094.69	392	2002	4.208726
1095.69	391	2004	4.209038
1096.69	390	1999	4.209350
1097.69	389	1991	4.209662
1098.69	388	2003	4.209973
1099.69	387	2071	4.210285
1100.69	386	1988	4.210597
1101.69	385	2003	4.210909
1102.69	384	1981	4.211220
1103.69	383	1948	4.211532
1104.69	382	1986	4.211844
1105.69	381	2076	4.212156
1106.69	380	2091	4.212467
1107.69	379	2017	4.212779
1108.69	378	2068	4.213091
1109.69	377	2061	4.213403
1110.69	376	2058	4.213715
1111.69	375	2043	4.214026
1112.69	374	2010	4.214338
1113.69	373	2030	4.214650
1114.69	372	2015	4.214962
1115.69	371	2094	4.215273
1116.69	370	2058	4.215585
1117.69	369	2057	4.215897
1118.69	368	2090	4.216209
1119.69	367	2094	4.216520
1120.69	366	2168	4.216832
1121.69	365	2035	4.217144
1122.69	364	2065	4.217456
1123.69	363	2075	4.217768
1124.69	362	2116	4.218079
1125.69	361	2119	4.218391
1126.69	360	2076	4.218703
1127.69	359	2083	4.219015
1128.69	358	2091	4.219326
1129.69	357	2113	4.219638
1130.69	356	2181	4.219950
1131.69	355	2098	4.220262
1132.69	354	2191	4.220573
1133.69	353	2149	4.220885
1134.69	352	2148	4.221197
1135.69	351	2225	4.221509
1136.69	350	2169	4.221821
1137.69	349	2106	4.222132
1138.69	348	2180	4.222444
1139.69	347	2155	4.222756
1140.69	346	2145	4.223068
1141.69	345	2221	4.223379
1142.69	344	2154	4.223691
1143.69	343	2196	4.224003
1144.69	342	2170	4.224315
1145.69	341	2184	4.224626
1146.69	340	2189	4.224938
1147.69	339	2229	4.225250
1148.69	338	2300	4.225562
1149.69	337	2222	4.225874
1150.69	336	2274	4.226185
1151.69	335	2224	4.226497
1152.69	334	2207	4.226809
1153.69	333	2225	4.227121
1154.69	332	2248	4.227432
1155.69	331	2293	4.227744
1156.69	330	2265	4.228056
1157.69	329	2285	4.228368
1158.69	328	2260	4.228679
1159.69	327	2294	4.228991
1160.69	326	2258	4.229303
1161.69	325	2306	4.229615
1162.69	324	2282	4.229926
1163.69	323	2326	4.230238
1164.69	322	2312	4.230550
1165.69	321	2353	4.230862
1166.69	320	2301	4.231174
1167.69	319	2317	4.231485
1168.69	318	2390	4.231797
1169.69	317	2339	4.232109
1170.69	316	2373	4.232421
1171.69	315	2372	4.232732
1172.69	314	2270	4.233044
1173.69	313	2329	4.233356
1174.69	312	2387	4.233668
1175.69	311	2403	4.233979
1176.69	310	2363	4.234291
1177.69	309	2357	4.234603
1178.69	308	2372	4.234915
1179.69	307	2355	4.235227
1180.69	306	2456	4.235538
1181.69	305	2349	4.235850
1182.69	304	2465	4.236162
1183.69	303	2360	4.236474
1184.69	302	2441	4.236785
1185.69	301	2425	4.237097
1186.69	300	2394	4.237409
1187.69	299	2458	4.237721
1188.69	298	2386	4.238032
1189.69	297	2389	4.238344
1190.69	296	2422	4.238656
1191.69	295	2482	4.238968
1192.69	294	2400	4.239280
1193.69	293	2442	4.239591
1194.69	292	2408	4.239903
1195.69	291	2567	4.240215
1196.69	290	2677	4.240527
1197.69	289	2743	4.240838
1198.69	288	2643	4.241150
1199.69	287	2963	4.241462
1200.69	286	3587	4.241774
1201.69	285	3755	4.242085
1202.69	284	2881	4.242397
1203.69	283	2441	4.242709
1204.69	282	2457	4.243021
1205.69	281	2430	4.243333
1206.69	280	2419	4.243644
1207.69	279	2474	4.243956
1208.69	278	2452	4.244268
1209.69	277	2421	4.244580
1210.69	276	2507	4.244891
1211.69	275	2456	4.245203
1212.69	274	2460	4.245515
1213.69	273	2457	4.245827
1214.69	272	2535	4.246138
1215.69	271	2647	4.246450
1216.69	270	2540	4.246762
1217.69	269	2527	4.247074
1218.69	268	2532	4.247386
1219.69	267	2581	4.247697
1220.69	266	2507	4.248009
1221.69	265	2427	4.248321
1222.69	264	2522	4.248633
1223.69	263	2494	4.248944
1224.69	262	2507	4.249256
1225.69	261	2506	4.249568
1226.69	260	2593	4.249880
1227.69	259	2535	4.250191
1228.69	258	2573	4.250503
1229.69	257	2538	4.250815
1230.69	256	2669	4.251127
1231.69	255	2459	4.251439
1232.69	254	2652	4.251750
1233.69	253	2648	4.252062
1234.69	252	2590	4.252374
1235.69	251	2572	4.252686
1236.69	250	2551	4.252931
1237.69	249	2597	4.253154
1238.69	248	2559	4.253376
1239.69	247	2579	4.253599
1240.69	246	2686	4.253822
1241.69	245	2628	4.254045
1242.69	244	2670	4.254268
1243.69	243	2708	4.254491
1244.69	242	2687	4.254714
1245.69	241	2653	4.254936
1246.69	240	2607	4.255159
1247.69	239	2699	4.255382
1248.69	238	2652	4.255605
1249.69	237	2645	4.255828
1250.69	236	2725	4.256051
1251.69	235	2722	4.256274
1252.69	234	2629	4.256496
1253.69	233	2698	4.256719
1254.69	232	2649	4.256942
1255.69	231	2766	4.257165
1256.69	230	2684	4.257388
1257.69	229	2737	4.257611
1258.69	228	2772	4.257834
1259.69	227	2746	4.258056
1260.69	226	2712	4.258279
1261.69	225	2764	4.258502
1262.69	224	2733	4.258725
1263.69	223	2724	4.258948
1264.69	222	2786	4.259171
1265.69	221	2765	4.259394
1266.69	220	2817	4.259616
1267.69	219	2800	4.259839
1268.69	218	2756	4.260062
1269.69	217	2763	4.260285
1270.69	216	2796	4.260508
1271.69	215	2856	4.260731
1272.69	214	2767	4.260954
1273.69	213	2766	4.261177
1274.69	212	2793	4.261399
1275.69	211	2802	4.261622
1276.69	210	2895	4.261845
1277.69	209	2820	4.262068
1278.69	208	2916	4.262291
1279.69	207	2890	4.262514
1280.69	206	2834	4.262737
1281.69	205	2863	4.262959
1282.69	204	2878	4.263182
1283.69	203	2839	4.263405
1284.69	202	2871	4.263628
1285.69	201	2936	4.263851
1286.69	200	3071	4.264074
1287.69	199	3069	4.264297
1288.69	198	3053	4.264519
1289.69	197	2926	4.264742
1290.69	196	2915	4.264965
1291.69	195	2960	4.265188
1292.69	194	2942	4.265411
1293.69	193	2945	4.265634
1294.69	192	3013	4.265857
1295.69	191	3062	4.266079
1296.69	190	3017	4.266302
1297.69	189	3011	4.266525
1298.69	188	2914	4.266748
1299.69	187	2993	4.266971
1300.69	186	2956	4.267194
1301.69	185	3033	4.267417
1302.69	184	3002	4.267639
1303.69	183	3113	4.267862
1304.69	182	3079	4.268085
1305.69	181	3059	4.268308
1306.69	180	3022	4.268531
1307.69	179	3041	4.268754
1308.69	178	2922	4.268977
1309.69	177	3156	4.269199
1310.69	176	3107	4.269422
1311.69	175	2904	4.269645
1312.69	174	3098	4.269868
1313.69	173	3114	4.270091
1314.69	172	3159	4.270314
1315.69	171	3016	4.270537
1316.69	170	3061	4.270760
1317.69	169	3204	4.270982
1318.69	168	3136	4.271205
1319.69	167	3117	4.271428
1320.69	166	3124	4.271651
1321.69	165	3202	4.271874
1322.69	164	3140	4.272097
1323.69	163	3158	4.272320
1324.69	162	3149	4.272542
1325.69	161	3197	4.272765
1326.69	160	3186	4.272988
1327.69	159	3245	4.273211
1328.69	158	3310	4.273434
1329.69	157	3250	4.272576
1330.69	156	3190	4.268296
1331.69	155	3159	4.264015
1332.69	154	3208	4.259735
1333.69	153	3261	4.255455
1334.69	152	3293	4.251175
1335.69	151	3330	4.246894
1336.69	150	3252	4.242614
1337.69	149	3335	4.238334
1338.69	148	3392	4.234054
1339.69	147	3397	4.229773
1340.69	146	3364	4.225493
1341.69	145	3383	4.221213
1342.69	144	3433	4.216933
1343.69	143	3438	4.212652
1344.69	142	3477	4.208372
1345.69	141	3440	4.204092
1346.69	140	3512	4.199812
1347.69	139	3497	4.195531
1348.69	138	3445	4.191251
1349.69	137	3396	4.186971
1350.69	136	3433	4.182691
1351.69	135	3351	4.178410
1352.69	134	3412	4.174130
1353.69	133	3481	4.169850
1354.69	132	3429	4.165570
1355.69	131	3389	4.161289
1356.69	130	3545	4.157009
1357.69	129	3509	4.152729
1358.69	128	3792	4.148449
1359.69	127	3883	4.144168
1360.69	126	4185	4.139888
1361.69	125	4613	4.135608
1362.69	124	4756	4.131328
1363.69	123	4464	4.127047
1364.69	122	4070	4.122767
1365.69	121	3812	4.118487
1366.69	120	3589	4.114207
1367.69	119	3420	4.109926
1368.69	118	3337	4.105646
1369.69	117	3337	4.101366
1370.69	116	3247	4.097086
1371.69	115	3278	4.092805
1372.69	114	3290	4.088525
1373.69	113	3367	4.084245
1374.69	112	3291	4.079965
1375.69	111	3400	4.075684
1376.69	110	3439	4.071404
1377.69	109	3389	4.067124
1378.69	108	3402	4.062844
1379.69	107	3436	4.058563
1380.69	106	3505	4.054283
1381.69	105	3451	4.050003
1382.69	104	3488	4.045723
1383.69	103	3525	4.041442
1384.69	102	3633	4.037162
1385.69	101	3666	4.032882
1386.69	100	3712	4.028602
1387.69	99	3589	4.024321
1388.69	98	3612	4.020041
1389.69	97	3703	4.015761
1390.69	96	3742	4.011481
1391.69	95	3766	4.007200
1392.69	94	3812	4.002920
1393.69	93	3878	3.998640
1394.69	92	3923	3.994360
1395.69	91	3968	3.990079
1396.69	90	4186	3.985799
1397.69	89	4208	3.981519
1398.69	88	4210	3.977239
1399.69	87	4477	3.972958
1400.69	86	4437	3.968678
1401.69	85	4431	3.964398
1402.69	84	4504	3.960118
1403.69	83	4574	3.955837
1404.69	82	4678	3.951557
1405.69	81	4836	3.947277
1406.69	80	4737	3.942997
1407.69	79	4782	3.938716
1408.69	78	4568	3.934436
1409.69	77	4315	3.930156
1410.69	76	3798	3.925876
1411.69	75	3534	3.921595
1412.69	74	3332	3.917315
1413.69	73	3146	3.913035
1414.69	72	2857	3.908755
1415.69	71	2773	3.904474
1416.69	70	2492	3.900194
1417.69	69	2321	3.895914
1418.69	68	2222	3.891634
1419.69	67	2134	3.887353
1420.69	66	2050	3.883073
1421.69	65	1999	3.878793
1422.69	64	1999	3.874513
1423.69	63	1922	3.870232
1424.69	62	1971	3.865952
1425.69	61	1963	3.861672
1426.69	60	1901	3.857392
1427.69	59	1909	3.853111
1428.69	58	1977	3.848831
1429.69	57	1946	3.844551
1430.69	56	1920	3.840270
1431.69	55	2002	3.835990
1432.69	54	2016	3.831710
1433.69	53	1986	3.827430
1434.69	52	1977	3.823149
1435.69	51	2024	3.818869
1436.69	50	2034	3.814589
1437.69	49	2174	3.810309
1438.69	48	2124	3.806028
1439.69	47	2168	3.801748
1440.69	46	2353	3.797468
1441.69	45	2292	3.793188
1442.69	44	2354	3.788907
1443.69	43	2230	3.784627
1444.69	42	2334	3.780347
1445.69	41	2325	3.776067
1446.69	40	2379	3.771786
1447.69	39	2368	3.767506
1448.69	38	2455	3.763226
1449.69	37	2478	3.758946
1450.69	36	2400	3.754665
1451.69	35	2296	3.750385
1452.69	34	2255	3.746105
1453.69	33	2201	3.741825
1454.69	32	2090	3.737544
1455.69	31	2084	3.733264
1456.69	30	2153	3.728984
1457.69	29	2519	3.724704
1458.69	28	3261	3.720423
1459.69	27	3911	3.716143
1460.69	26	3272	3.711863
1461.69	25	2230	3.707583
1462.69	24	2288	3.703302
1463.69	23	2402	3.703046
1464.69	22	2476	3.703046
1465.69	21	4066	3.703046
1466.69	20	10273	3.703046
1467.69	19	20994	3.703046
1468.69	18	17980	3.703046
1469.69	17	4935	3.703046
1470.69	16	1181	3.703046
1471.69	15	503	3.703046
1472.69	14	289	3.703046
1473.69	13	254	3.703046
1474.69	12	229	3.703046
1475.69	11	296	3.703046
1476.69	10	408	3.703046
1477.69	9.000000	668	3.703046
1478.69	8.000000	800	3.703046
1479.69	7.000000	843	3.703046
1480.69	6.000000	903	3.703046
1481.69	5.000000	883	3.703046
1482.69	4.000000	689	3.703046
1483.69	3.000000	187	3.703046
1484.69	2.000000	42	3.703046
1485.69	1.000000	29	3.703046
1486.69	0.000000	25	3.703046
1487.69	-1.000000	3.000000	3.703046
1488.69	-2.000000	7.000000	3.703046
1489.69	-3.000000	4.000000	3.703046
1490.69	-4.000000	8.000000	3.703046
1491.69	-5.000000	3.000000	3.703046