File: KHU_project/ITOwide/wide_pe160
Dataset wide:2(ito)
Dwell Time (s)	0.100000
Number of sweeps	3
Kinetic Energy(eV)	Binding Energy(eV)	Intensity(cps)	Transmission Value
286.69	1200	9943.33	5.684839
287.69	1199	9836.67	5.689028
288.69	1198	9906.67	5.693218
289.69	1197	9906.67	5.697407
290.69	1196	9883.33	5.701597
291.69	1195	9743.33	5.705786
292.69	1194	9880	5.709976
293.69	1193	9820	5.714165
294.69	1192	10340	5.718355
295.69	1191	10120	5.722545
296.69	1190	10253.3	5.726734
297.69	1189	9973.33	5.730924
298.69	1188	10006.7	5.735113
299.69	1187	9910	5.739303
300.69	1186	9983.33	5.743492
301.69	1185	9730	5.747682
302.69	1184	9570	5.751871
303.69	1183	9780	5.756061
304.69	1182	9676.67	5.760250
305.69	1181	9626.67	5.764440
306.69	1180	9600	5.768630
307.69	1179	9840	5.772819
308.69	1178	9403.33	5.777009
309.69	1177	9736.67	5.781198
310.69	1176	9713.33	5.785388
311.69	1175	9563.33	5.789577
312.69	1174	9906.67	5.793767
313.69	1173	9606.67	5.797956
314.69	1172	9576.67	5.802146
315.69	1171	9870	5.806335
316.69	1170	9646.67	5.810525
317.69	1169	9900	5.814715
318.69	1168	9850	5.818904
319.69	1167	9783.33	5.823094
320.69	1166	9593.33	5.827283
321.69	1165	9993.33	5.831473
322.69	1164	10173.3	5.835662
323.69	1163	9843.33	5.839852
324.69	1162	9966.67	5.844041
325.69	1161	9786.67	5.848231
326.69	1160	9890	5.852421
327.69	1159	10030	5.856610
328.69	1158	9983.33	5.861690
329.69	1157	9836.67	5.867871
330.69	1156	9760	5.874052
331.69	1155	9976.67	5.880232
332.69	1154	10020	5.886413
333.69	1153	9906.67	5.892594
334.69	1152	9940	5.898775
335.69	1151	9916.67	5.904956
336.69	1150	10000	5.911137
337.69	1149	10083.3	5.917318
338.69	1148	9900	5.923499
339.69	1147	9990	5.929680
340.69	1146	9763.33	5.935860
341.69	1145	10126.7	5.942041
342.69	1144	9723.33	5.948222
343.69	1143	9763.33	5.954403
344.69	1142	9600	5.960584
345.69	1141	9416.67	5.966765
346.69	1140	9446.67	5.972946
347.69	1139	9576.67	5.979127
348.69	1138	9423.33	5.985308
349.69	1137	9233.33	5.991488
350.69	1136	9203.33	5.997669
351.69	1135	9036.67	6.003850
352.69	1134	9066.67	6.010031
353.69	1133	9360	6.016212
354.69	1132	8833.33	6.022393
355.69	1131	8780	6.028574
356.69	1130	9010	6.034755
357.69	1129	8836.67	6.040936
358.69	1128	8860	6.047116
359.69	1127	8750	6.053297
360.69	1126	8843.33	6.059478
361.69	1125	8870	6.065659
362.69	1124	8836.67	6.071840
363.69	1123	8943.33	6.078021
364.69	1122	8943.33	6.084202
365.69	1121	8793.33	6.090383
366.69	1120	9013.33	6.096563
367.69	1119	8913.33	6.102744
368.69	1118	8886.67	6.108925
369.69	1117	8903.33	6.115106
370.69	1116	9036.67	6.121287
371.69	1115	9013.33	6.127468
372.69	1114	8980	6.133649
373.69	1113	9256.67	6.139830
374.69	1112	9423.33	6.146011
375.69	1111	8826.67	6.152191
376.69	1110	9193.33	6.158372
377.69	1109	9213.33	6.164553
378.69	1108	9286.67	6.170734
379.69	1107	9010	6.176915
380.69	1106	9180	6.183096
381.69	1105	9550	6.189277
382.69	1104	9353.33	6.195458
383.69	1103	9276.67	6.201639
384.69	1102	9590	6.207819
385.69	1101	9256.67	6.214000
386.69	1100	9436.67	6.220181
387.69	1099	9390	6.226362
388.69	1098	9183.33	6.232543
389.69	1097	9470	6.238724
390.69	1096	9333.33	6.244905
391.69	1095	9410	6.251086
392.69	1094	9270	6.257267
393.69	1093	9313.33	6.263447
394.69	1092	9886.67	6.269628
395.69	1091	10123.3	6.275809
396.69	1090	10486.7	6.281990
397.69	1089	11433.3	6.288171
398.69	1088	12543.3	6.294352
399.69	1087	13476.7	6.300533
400.69	1086	13663.3	6.306714
401.69	1085	13323.3	6.312895
402.69	1084	11970	6.319075
403.69	1083	11446.7	6.325256
404.69	1082	11040	6.331437
405.69	1081	11140	6.337618
406.69	1080	11186.7	6.343799
407.69	1079	11276.7	6.349980
408.69	1078	10500	6.356161
409.69	1077	9306.67	6.362342
410.69	1076	8370	6.368523
411.69	1075	7953.33	6.374703
412.69	1074	7706.67	6.380884
413.69	1073	7486.67	6.387065
414.69	1072	7453.33	6.393246
415.69	1071	7440	6.399427
416.69	1070	7403.33	6.405608
417.69	1069	7410	6.411789
418.69	1068	7723.33	6.417970
419.69	1067	7690	6.424151
420.69	1066	7676.67	6.430331
421.69	1065	7653.33	6.436512
422.69	1064	7756.67	6.442693
423.69	1063	7430	6.448874
424.69	1062	7766.67	6.455055
425.69	1061	8093.33	6.461236
426.69	1060	8070	6.467417
427.69	1059	7986.67	6.473598
428.69	1058	7563.33	6.479779
429.69	1057	7730	6.485959
430.69	1056	7253.33	6.492140
431.69	1055	7496.67	6.498321
432.69	1054	7566.67	6.504502
433.69	1053	7656.67	6.510683
434.69	1052	7236.67	6.516864
435.69	1051	7396.67	6.523045
436.69	1050	7246.67	6.529226
437.69	1049	7203.33	6.535407
438.69	1048	6946.67	6.541587
439.69	1047	7130	6.547768
440.69	1046	7340	6.553949
441.69	1045	7170	6.560130
442.69	1044	7146.67	6.566311
443.69	1043	7050	6.572492
444.69	1042	7076.67	6.578673
445.69	1041	7306.67	6.584854
446.69	1040	7206.67	6.591035
447.69	1039	7186.67	6.597215
448.69	1038	7203.33	6.603396
449.69	1037	7086.67	6.609577
450.69	1036	7123.33	6.615758
451.69	1035	7466.67	6.621939
452.69	1034	7400	6.628120
453.69	1033	7406.67	6.634301
454.69	1032	7410	6.640482
455.69	1031	7263.33	6.646663
456.69	1030	7303.33	6.652792
457.69	1029	7363.33	6.658895
458.69	1028	7603.33	6.664998
459.69	1027	7606.67	6.671101
460.69	1026	7440	6.677204
461.69	1025	7673.33	6.683308
462.69	1024	7463.33	6.689411
463.69	1023	7620	6.695514
464.69	1022	7510	6.701617
465.69	1021	7593.33	6.707720
466.69	1020	7740	6.713823
467.69	1019	7723.33	6.719926
468.69	1018	7460	6.726029
469.69	1017	7683.33	6.732132
470.69	1016	7560	6.738235
471.69	1015	7913.33	6.744339
472.69	1014	7830	6.750442
473.69	1013	7716.67	6.756545
474.69	1012	7843.33	6.762648
475.69	1011	8013.33	6.768751
476.69	1010	7933.33	6.774854
477.69	1009	8050	6.780957
478.69	1008	8066.67	6.787060
479.69	1007	8100	6.793163
480.69	1006	7846.67	6.799266
481.69	1005	7813.33	6.805370
482.69	1004	7940	6.811473
483.69	1003	7666.67	6.817576
484.69	1002	7946.67	6.823679
485.69	1001	7860	6.829782
486.69	1000	8306.67	6.835885
487.69	999	8113.33	6.841988
488.69	998	8333.33	6.848091
489.69	997	8366.67	6.854194
490.69	996	8526.67	6.860297
491.69	995	8450	6.866401
492.69	994	8546.67	6.872504
493.69	993	8670	6.878607
494.69	992	8446.67	6.884710
495.69	991	8333.33	6.890813
496.69	990	8243.33	6.896916
497.69	989	8173.33	6.903019
498.69	988	8376.67	6.909122
499.69	987	8190	6.915225
500.69	986	8113.33	6.921328
501.69	985	8123.33	6.927432
502.69	984	8156.67	6.933535
503.69	983	8146.67	6.939638
504.69	982	8006.67	6.945741
505.69	981	8260	6.951844
506.69	980	8216.67	6.957947
507.69	979	8336.67	6.964050
508.69	978	8753.33	6.970153
509.69	977	9156.67	6.976256
510.69	976	9913.33	6.982359
511.69	975	10406.7	6.988463
512.69	974	10290	6.994566
513.69	973	9826.67	7.000669
514.69	972	9136.67	7.006772
515.69	971	8760	7.012875
516.69	970	8540	7.018978
517.69	969	8193.33	7.025081
518.69	968	8290	7.031184
519.69	967	8130	7.037287
520.69	966	7960	7.043390
521.69	965	7806.67	7.049494
522.69	964	7676.67	7.055597
523.69	963	7556.67	7.061700
524.69	962	7790	7.067803
525.69	961	7690	7.073906
526.69	960	7600	7.080009
527.69	959	7690	7.086112
528.69	958	7606.67	7.092215
529.69	957	7410	7.098318
530.69	956	7663.33	7.104421
531.69	955	7646.67	7.110525
532.69	954	7660	7.116628
533.69	953	7660	7.122731
534.69	952	7733.33	7.128834
535.69	951	7623.33	7.134937
536.69	950	7900	7.141040
537.69	949	7953.33	7.147143
538.69	948	7473.33	7.153246
539.69	947	7853.33	7.159349
540.69	946	7883.33	7.165452
541.69	945	7810	7.171556
542.69	944	7700	7.177659
543.69	943	7876.67	7.183762
544.69	942	7953.33	7.189865
545.69	941	7963.33	7.195968
546.69	940	8180	7.202071
547.69	939	7940	7.208174
548.69	938	7666.67	7.214277
549.69	937	7980	7.220380
550.69	936	7950	7.226483
551.69	935	8160	7.232587
552.69	934	7996.67	7.238690
553.69	933	8076.67	7.244793
554.69	932	7936.67	7.250896
555.69	931	7870	7.256999
556.69	930	8050	7.263102
557.69	929	8446.67	7.269205
558.69	928	8273.33	7.275308
559.69	927	8076.67	7.281411
560.69	926	8223.33	7.287514
561.69	925	8020	7.293618
562.69	924	8380	7.299721
563.69	923	8146.67	7.305824
564.69	922	8360	7.311927
565.69	921	8106.67	7.318030
566.69	920	8383.33	7.324133
567.69	919	8206.67	7.330236
568.69	918	8356.67	7.336339
569.69	917	8570	7.342442
570.69	916	8470	7.348545
571.69	915	8480	7.354649
572.69	914	8546.67	7.360752
573.69	913	8380	7.366855
574.69	912	8426.67	7.372958
575.69	911	8376.67	7.379061
576.69	910	8683.33	7.385164
577.69	909	8730	7.391267
578.69	908	8463.33	7.397370
579.69	907	8406.67	7.403473
580.69	906	8433.33	7.409576
581.69	905	8773.33	7.415680
582.69	904	8646.67	7.421783
583.69	903	8546.67	7.427886
584.69	902	8716.67	7.433989
585.69	901	8533.33	7.440092
586.69	900	8516.67	7.446195
587.69	899	8680	7.452298
588.69	898	8740	7.458401
589.69	897	8810	7.464504
590.69	896	8873.33	7.470607
591.69	895	8826.67	7.476711
592.69	894	8716.67	7.482814
593.69	893	8863.33	7.488917
594.69	892	8643.33	7.495020
595.69	891	8613.33	7.501123
596.69	890	8996.67	7.507226
597.69	889	8940	7.513329
598.69	888	9220	7.519432
599.69	887	9153.33	7.525535
600.69	886	8943.33	7.531639
601.69	885	8900	7.537742
602.69	884	8790	7.543845
603.69	883	9023.33	7.549948
604.69	882	8993.33	7.556051
605.69	881	9023.33	7.562154
606.69	880	9040	7.568257
607.69	879	8960	7.574360
608.69	878	9013.33	7.580463
609.69	877	8920	7.586566
610.69	876	9343.33	7.592670
611.69	875	9086.67	7.598773
612.69	874	9196.67	7.604876
613.69	873	8973.33	7.610979
614.69	872	9156.67	7.617082
615.69	871	9173.33	7.623185
616.69	870	9293.33	7.629288
617.69	869	9070	7.635391
618.69	868	9476.67	7.641494
619.69	867	9320	7.647597
620.69	866	9393.33	7.653701
621.69	865	9403.33	7.659804
622.69	864	9293.33	7.665907
623.69	863	9226.67	7.672010
624.69	862	9826.67	7.678113
625.69	861	9486.67	7.684216
626.69	860	9536.67	7.690319
627.69	859	9426.67	7.696422
628.69	858	9500	7.702525
629.69	857	9680	7.708628
630.69	856	9643.33	7.714732
631.69	855	9536.67	7.720835
632.69	854	9696.67	7.726938
633.69	853	9530	7.733041
634.69	852	9643.33	7.739144
635.69	851	9410	7.745247
636.69	850	10136.7	7.751350
637.69	849	9740	7.757453
638.69	848	9623.33	7.763556
639.69	847	9810	7.769659
640.69	846	9780	7.775763
641.69	845	10043.3	7.781866
642.69	844	10053.3	7.787969
643.69	843	9906.67	7.794072
644.69	842	9983.33	7.800175
645.69	841	9886.67	7.806278
646.69	840	9973.33	7.812381
647.69	839	9956.67	7.818484
648.69	838	9946.67	7.824587
649.69	837	9920	7.830690
650.69	836	10266.7	7.836794
651.69	835	10036.7	7.842897
652.69	834	10233.3	7.849000
653.69	833	10256.7	7.855103
654.69	832	10436.7	7.861206
655.69	831	10833.3	7.867309
656.69	830	10873.3	7.873412
657.69	829	10896.7	7.879515
658.69	828	10756.7	7.885618
659.69	827	11126.7	7.891721
660.69	826	10870	7.897825
661.69	825	11186.7	7.903928
662.69	824	10780	7.910031
663.69	823	10436.7	7.916134
664.69	822	10293.3	7.922237
665.69	821	10193.3	7.926931
666.69	820	10230	7.931169
667.69	819	10406.7	7.935407
668.69	818	10246.7	7.939645
669.69	817	10220	7.943883
670.69	816	9940	7.948121
671.69	815	10526.7	7.952358
672.69	814	10370	7.956596
673.69	813	10040	7.960834
674.69	812	10076.7	7.965072
675.69	811	10070	7.969310
676.69	810	10240	7.973548
677.69	809	10236.7	7.977786
678.69	808	10233.3	7.982024
679.69	807	10106.7	7.986262
680.69	806	10260	7.990500
681.69	805	10246.7	7.994738
682.69	804	10393.3	7.998976
683.69	803	10356.7	8.003214
684.69	802	10353.3	8.007451
685.69	801	10523.3	8.011689
686.69	800	10350	8.015927
687.69	799	10236.7	8.020165
688.69	798	10266.7	8.024403
689.69	797	10270	8.028641
690.69	796	10360	8.032879
691.69	795	10560	8.037117
692.69	794	10510	8.041355
693.69	793	10543.3	8.045593
694.69	792	10280	8.049831
695.69	791	10450	8.054069
696.69	790	10423.3	8.058307
697.69	789	10476.7	8.062544
698.69	788	10780	8.066782
699.69	787	10900	8.071020
700.69	786	10753.3	8.075258
701.69	785	10663.3	8.079496
702.69	784	10810	8.083734
703.69	783	10766.7	8.087972
704.69	782	10943.3	8.092210
705.69	781	10623.3	8.096448
706.69	780	10786.7	8.100686
707.69	779	10923.3	8.104924
708.69	778	10770	8.109162
709.69	777	11006.7	8.113400
710.69	776	10863.3	8.117637
711.69	775	10730	8.121875
712.69	774	10796.7	8.126113
713.69	773	10936.7	8.130351
714.69	772	10983.3	8.134589
715.69	771	11210	8.138827
716.69	770	11013.3	8.143065
717.69	769	11116.7	8.147303
718.69	768	11163.3	8.151541
719.69	767	11286.7	8.155779
720.69	766	11230	8.160017
721.69	765	11126.7	8.164255
722.69	764	11420	8.168493
723.69	763	11263.3	8.172730
724.69	762	11436.7	8.176968
725.69	761	11700	8.181206
726.69	760	11596.7	8.185444
727.69	759	11816.7	8.189682
728.69	758	12233.3	8.193920
729.69	757	11936.7	8.198158
730.69	756	11770	8.202396
731.69	755	11506.7	8.206634
732.69	754	11543.3	8.210872
733.69	753	11706.7	8.215110
734.69	752	11513.3	8.219348
735.69	751	11626.7	8.223586
736.69	750	11663.3	8.227823
737.69	749	11820	8.232061
738.69	748	11903.3	8.236299
739.69	747	11760	8.240537
740.69	746	12130	8.244775
741.69	745	11723.3	8.249013
742.69	744	11873.3	8.253251
743.69	743	11960	8.257489
744.69	742	11876.7	8.261727
745.69	741	11776.7	8.265965
746.69	740	11980	8.270203
747.69	739	11906.7	8.274441
748.69	738	12146.7	8.278679
749.69	737	12153.3	8.282917
750.69	736	11886.7	8.287154
751.69	735	12196.7	8.291392
752.69	734	12110	8.295630
753.69	733	12170	8.299868
754.69	732	11856.7	8.304106
755.69	731	11963.3	8.308344
756.69	730	12453.3	8.312582
757.69	729	12126.7	8.316820
758.69	728	12370	8.321058
759.69	727	12446.7	8.325296
760.69	726	12536.7	8.329534
761.69	725	12520	8.333772
762.69	724	12770	8.338010
763.69	723	12723.3	8.342247
764.69	722	13080	8.346485
765.69	721	12556.7	8.350723
766.69	720	13156.7	8.354961
767.69	719	13240	8.359199
768.69	718	13400	8.363437
769.69	717	13490	8.367675
770.69	716	13956.7	8.371913
771.69	715	13526.7	8.376151
772.69	714	12810	8.380389
773.69	713	12606.7	8.384627
774.69	712	12686.7	8.388865
775.69	711	12443.3	8.393103
776.69	710	12406.7	8.397340
777.69	709	12796.7	8.401578
778.69	708	13120	8.405816
779.69	707	14130	8.410054
780.69	706	15503.3	8.414292
781.69	705	17443.3	8.418530
782.69	704	18253.3	8.422768
783.69	703	17746.7	8.427006
784.69	702	15686.7	8.431244
785.69	701	13863.3	8.435482
786.69	700	13136.7	8.439720
787.69	699	12846.7	8.443958
788.69	698	12430	8.448196
789.69	697	12416.7	8.452433
790.69	696	11986.7	8.456671
791.69	695	12336.7	8.460909
792.69	694	12350	8.465147
793.69	693	12336.7	8.469385
794.69	692	12180	8.473623
795.69	691	12403.3	8.477861
796.69	690	12610	8.482099
797.69	689	12263.3	8.486337
798.69	688	12356.7	8.490575
799.69	687	12243.3	8.494813
800.69	686	12880	8.499051
801.69	685	12770	8.503289
802.69	684	12930	8.507526
803.69	683	12726.7	8.511764
804.69	682	12590	8.516002
805.69	681	12260	8.520240
806.69	680	12336.7	8.524478
807.69	679	12206.7	8.528716
808.69	678	12330	8.532954
809.69	677	12306.7	8.537192
810.69	676	12193.3	8.541430
811.69	675	11970	8.545668
812.69	674	12193.3	8.549906
813.69	673	12130	8.554144
814.69	672	12176.7	8.558382
815.69	671	12880	8.562620
816.69	670	13576.7	8.566857
817.69	669	15456.7	8.571095
818.69	668	18610	8.575333
819.69	667	22803.3	8.579571
820.69	666	24503.3	8.583809
821.69	665	22806.7	8.588047
822.69	664	18210	8.592285
823.69	663	14946.7	8.596523
824.69	662	12916.7	8.600761
825.69	661	11936.7	8.604999
826.69	660	11506.7	8.609237
827.69	659	11120	8.613475
828.69	658	10950	8.617713
829.69	657	10746.7	8.621950
830.69	656	10483.3	8.626188
831.69	655	10470	8.630426
832.69	654	10600	8.634664
833.69	653	10333.3	8.638902
834.69	652	10220	8.643140
835.69	651	10570	8.647378
836.69	650	10556.7	8.651616
837.69	649	10453.3	8.655854
838.69	648	10826.7	8.660092
839.69	647	10676.7	8.664330
840.69	646	10433.3	8.668568
841.69	645	10683.3	8.672806
842.69	644	10570	8.677043
843.69	643	10670	8.681281
844.69	642	10513.3	8.685519
845.69	641	10643.3	8.689757
846.69	640	10570	8.693995
847.69	639	10600	8.698233
848.69	638	10650	8.702471
849.69	637	10883.3	8.706709
850.69	636	10810	8.710947
851.69	635	10646.7	8.715185
852.69	634	10820	8.719423
853.69	633	10473.3	8.723661
854.69	632	10913.3	8.727899
855.69	631	10766.7	8.732136
856.69	630	10690	8.736374
857.69	629	10670	8.740612
858.69	628	10760	8.744850
859.69	627	11023.3	8.749088
860.69	626	10983.3	8.753326
861.69	625	11030	8.757564
862.69	624	10963.3	8.761802
863.69	623	11183.3	8.766040
864.69	622	10730	8.770278
865.69	621	10890	8.774516
866.69	620	11180	8.778754
867.69	619	11066.7	8.782992
868.69	618	11136.7	8.787229
869.69	617	11226.7	8.791467
870.69	616	11053.3	8.795705
871.69	615	11403.3	8.799943
872.69	614	11103.3	8.804181
873.69	613	11483.3	8.808419
874.69	612	11123.3	8.812657
875.69	611	11130	8.816895
876.69	610	11343.3	8.821133
877.69	609	11186.7	8.825371
878.69	608	11100	8.829609
879.69	607	11163.3	8.833847
880.69	606	11333.3	8.838085
881.69	605	11303.3	8.842323
882.69	604	11463.3	8.846560
883.69	603	11356.7	8.850798
884.69	602	11690	8.855036
885.69	601	11440	8.859274
886.69	600	11796.7	8.863512
887.69	599	11793.3	8.866119
888.69	598	11836.7	8.868583
889.69	597	11850	8.871047
890.69	596	11470	8.873510
891.69	595	11676.7	8.875974
892.69	594	11790	8.878437
893.69	593	11923.3	8.880901
894.69	592	11880	8.883364
895.69	591	11750	8.885828
896.69	590	11700	8.888291
897.69	589	11906.7	8.890755
898.69	588	11756.7	8.893219
899.69	587	11766.7	8.895682
900.69	586	12000	8.898146
901.69	585	11843.3	8.900609
902.69	584	11960	8.903073
903.69	583	12400	8.905536
904.69	582	12276.7	8.908000
905.69	581	12020	8.910464
906.69	580	12506.7	8.912927
907.69	579	12486.7	8.915391
908.69	578	12396.7	8.917854
909.69	577	12106.7	8.920318
910.69	576	12240	8.922781
911.69	575	12433.3	8.925245
912.69	574	12590	8.927708
913.69	573	12496.7	8.930172
914.69	572	12610	8.932636
915.69	571	12663.3	8.935099
916.69	570	12940	8.937563
917.69	569	12643.3	8.940026
918.69	568	12416.7	8.942490
919.69	567	12643.3	8.944953
920.69	566	12400	8.947417
921.69	565	12693.3	8.949880
922.69	564	12596.7	8.952344
923.69	563	12656.7	8.954808
924.69	562	12813.3	8.957271
925.69	561	12753.3	8.959735
926.69	560	13033.3	8.962198
927.69	559	12870	8.964662
928.69	558	12870	8.967125
929.69	557	13203.3	8.969589
930.69	556	13180	8.972053
931.69	555	13026.7	8.974516
932.69	554	13463.3	8.976980
933.69	553	13456.7	8.979443
934.69	552	13510	8.981907
935.69	551	13256.7	8.984370
936.69	550	14040	8.986834
937.69	549	13956.7	8.989297
938.69	548	13806.7	8.991761
939.69	547	13843.3	8.994225
940.69	546	13853.3	8.996688
941.69	545	13146.7	8.999152
942.69	544	13346.7	9.001615
943.69	543	13023.3	9.004079
944.69	542	12963.3	9.006542
945.69	541	12850	9.009006
946.69	540	12656.7	9.011470
947.69	539	12476.7	9.013933
948.69	538	12896.7	9.016397
949.69	537	12450	9.018860
950.69	536	12773.3	9.021324
951.69	535	12570	9.023787
952.69	534	13030	9.026251
953.69	533	15473.3	9.028714
954.69	532	19576.7	9.031178
955.69	531	26476.7	9.033642
956.69	530	26966.7	9.036105
957.69	529	18426.7	9.038569
958.69	528	13206.7	9.041032
959.69	527	12356.7	9.043496
960.69	526	11983.3	9.045959
961.69	525	12283.3	9.048423
962.69	524	12066.7	9.050886
963.69	523	11996.7	9.053350
964.69	522	12196.7	9.055814
965.69	521	12213.3	9.058277
966.69	520	11906.7	9.060741
967.69	519	12486.7	9.063204
968.69	518	12173.3	9.065668
969.69	517	12183.3	9.068131
970.69	516	12263.3	9.070595
971.69	515	12400	9.073059
972.69	514	12810	9.075522
973.69	513	12623.3	9.077986
974.69	512	12540	9.080449
975.69	511	12453.3	9.082913
976.69	510	12593.3	9.085376
977.69	509	12896.7	9.087840
978.69	508	12976.7	9.090303
979.69	507	12736.7	9.092767
980.69	506	12706.7	9.095231
981.69	505	12883.3	9.097694
982.69	504	12723.3	9.100158
983.69	503	13040	9.102621
984.69	502	12813.3	9.105085
985.69	501	12780	9.107548
986.69	500	12953.3	9.110012
987.69	499	12890	9.112476
988.69	498	13220	9.114939
989.69	497	14283.3	9.117403
990.69	496	16666.7	9.119866
991.69	495	17443.3	9.122330
992.69	494	15306.7	9.124793
993.69	493	12926.7	9.127257
994.69	492	12743.3	9.129720
995.69	491	12550	9.132184
996.69	490	12930	9.134648
997.69	489	13850	9.137111
998.69	488	16376.7	9.139575
999.69	487	19663.3	9.142038
1000.69	486	18083.3	9.144502
1001.69	485	14106.7	9.146965
1002.69	484	12813.3	9.149429
1003.69	483	12650	9.151892
1004.69	482	12760	9.154356
1005.69	481	12646.7	9.156820
1006.69	480	12740	9.159283
1007.69	479	12763.3	9.161747
1008.69	478	12240	9.164210
1009.69	477	12893.3	9.166674
1010.69	476	13283.3	9.169137
1011.69	475	12850	9.171601
1012.69	474	13613.3	9.174065
1013.69	473	13420	9.176528
1014.69	472	14153.3	9.178992
1015.69	471	13953.3	9.181455
1016.69	470	13856.7	9.183919
1017.69	469	14146.7	9.186382
1018.69	468	14130	9.188846
1019.69	467	14153.3	9.191309
1020.69	466	13443.3	9.193773
1021.69	465	13963.3	9.196237
1022.69	464	13870	9.198700
1023.69	463	13680	9.201164
1024.69	462	13476.7	9.203627
1025.69	461	12596.7	9.206091
1026.69	460	12426.7	9.208554
1027.69	459	11456.7	9.211018
1028.69	458	11290	9.213482
1029.69	457	11123.3	9.215945
1030.69	456	11640	9.218409
1031.69	455	13860	9.220872
1032.69	454	23916.7	9.223336
1033.69	453	48323.3	9.225799
1034.69	452	55453.3	9.228263
1035.69	451	30136.7	9.231356
1036.69	450	10423.3	9.234726
1037.69	449	8303.33	9.238096
1038.69	448	9446.67	9.241466
1039.69	447	16896.7	9.244836
1040.69	446	41756.7	9.248206
1041.69	445	75390	9.251576
1042.69	444	61136.7	9.254946
1043.69	443	19380	9.258316
1044.69	442	6403.33	9.261686
1045.69	441	4500	9.265056
1046.69	440	3590	9.268426
1047.69	439	3103.33	9.271796
1048.69	438	2666.67	9.275166
1049.69	437	2503.33	9.278536
1050.69	436	2470	9.281906
1051.69	435	2280	9.285276
1052.69	434	2230	9.288646
1053.69	433	2183.33	9.292016
1054.69	432	2176.67	9.295386
1055.69	431	2196.67	9.298756
1056.69	430	2210	9.302126
1057.69	429	2213.33	9.305496
1058.69	428	2350	9.308866
1059.69	427	2290	9.312237
1060.69	426	2056.67	9.315607
1061.69	425	2153.33	9.318977
1062.69	424	2153.33	9.322347
1063.69	423	2140	9.325717
1064.69	422	2203.33	9.329087
1065.69	421	2133.33	9.332457
1066.69	420	2123.33	9.335827
1067.69	419	2323.33	9.339197
1068.69	418	2220	9.342567
1069.69	417	2223.33	9.345937
1070.69	416	2076.67	9.349307
1071.69	415	2246.67	9.352677
1072.69	414	2270	9.356047
1073.69	413	2230	9.359417
1074.69	412	2283.33	9.362787
1075.69	411	2106.67	9.366157
1076.69	410	2320	9.369527
1077.69	409	2166.67	9.372897
1078.69	408	2326.67	9.376267
1079.69	407	2313.33	9.379637
1080.69	406	2286.67	9.383007
1081.69	405	2163.33	9.386377
1082.69	404	2273.33	9.389747
1083.69	403	2286.67	9.393117
1084.69	402	2193.33	9.396487
1085.69	401	2253.33	9.399857
1086.69	400	2320	9.403227
1087.69	399	2410	9.406597
1088.69	398	2333.33	9.409967
1089.69	397	2406.67	9.413337
1090.69	396	2286.67	9.416707
1091.69	395	2186.67	9.420077
1092.69	394	2210	9.423447
1093.69	393	2176.67	9.426817
1094.69	392	2130	9.430187
1095.69	391	2416.67	9.433557
1096.69	390	2196.67	9.436927
1097.69	389	2376.67	9.440297
1098.69	388	2306.67	9.443667
1099.69	387	2273.33	9.447037
1100.69	386	2286.67	9.450407
1101.69	385	2260	9.453777
1102.69	384	2290	9.457147
1103.69	383	2390	9.460517
1104.69	382	2416.67	9.463887
1105.69	381	2323.33	9.467257
1106.69	380	2170	9.470627
1107.69	379	2323.33	9.473997
1108.69	378	2206.67	9.477367
1109.69	377	2410	9.480737
1110.69	376	2366.67	9.484107
1111.69	375	2396.67	9.487477
1112.69	374	2316.67	9.490847
1113.69	373	2516.67	9.494217
1114.69	372	2546.67	9.497587
1115.69	371	2430	9.500957
1116.69	370	2350	9.504327
1117.69	369	2506.67	9.507697
1118.69	368	2363.33	9.511067
1119.69	367	2506.67	9.514437
1120.69	366	2340	9.517807
1121.69	365	2450	9.521177
1122.69	364	2503.33	9.524547
1123.69	363	2450	9.527917
1124.69	362	2393.33	9.531287
1125.69	361	2510	9.534657
1126.69	360	2623.33	9.538027
1127.69	359	2416.67	9.541397
1128.69	358	2440	9.544767
1129.69	357	2523.33	9.548137
1130.69	356	2536.67	9.551507
1131.69	355	2470	9.554877
1132.69	354	2413.33	9.558247
1133.69	353	2430	9.561617
1134.69	352	2583.33	9.564987
1135.69	351	2616.67	9.568357
1136.69	350	2486.67	9.571727
1137.69	349	2510	9.575097
1138.69	348	2626.67	9.578467
1139.69	347	2600	9.581837
1140.69	346	2516.67	9.585207
1141.69	345	2503.33	9.588577
1142.69	344	2563.33	9.591947
1143.69	343	2413.33	9.595317
1144.69	342	2616.67	9.598687
1145.69	341	2580	9.602057
1146.69	340	2610	9.605427
1147.69	339	2503.33	9.608797
1148.69	338	2613.33	9.612167
1149.69	337	2576.67	9.615537
1150.69	336	2553.33	9.618907
1151.69	335	2616.67	9.622277
1152.69	334	2576.67	9.625647
1153.69	333	2720	9.629017
1154.69	332	2723.33	9.632387
1155.69	331	2730	9.635757
1156.69	330	2700	9.639127
1157.69	329	2713.33	9.642497
1158.69	328	2623.33	9.645867
1159.69	327	2693.33	9.649237
1160.69	326	2706.67	9.652607
1161.69	325	2740	9.655977
1162.69	324	2726.67	9.659347
1163.69	323	2753.33	9.662717
1164.69	322	2836.67	9.666087
1165.69	321	2763.33	9.669457
1166.69	320	2826.67	9.672827
1167.69	319	2753.33	9.676197
1168.69	318	2756.67	9.679567
1169.69	317	2863.33	9.682937
1170.69	316	2950	9.686307
1171.69	315	2800	9.689677
1172.69	314	2980	9.693047
1173.69	313	2910	9.696417
1174.69	312	2760	9.699787
1175.69	311	2810	9.703157
1176.69	310	2853.33	9.706527
1177.69	309	2940	9.709897
1178.69	308	2946.67	9.713267
1179.69	307	2773.33	9.716637
1180.69	306	2940	9.720007
1181.69	305	2773.33	9.723377
1182.69	304	2840	9.726747
1183.69	303	3036.67	9.730117
1184.69	302	2836.67	9.733487
1185.69	301	2930	9.736857
1186.69	300	2913.33	9.740227
1187.69	299	3016.67	9.743597
1188.69	298	2966.67	9.746967
1189.69	297	2833.33	9.750337
1190.69	296	3026.67	9.753707
1191.69	295	2823.33	9.757077
1192.69	294	2966.67	9.760447
1193.69	293	3026.67	9.763817
1194.69	292	2783.33	9.767187
1195.69	291	2976.67	9.770557
1196.69	290	3210	9.773927
1197.69	289	3333.33	9.777297
1198.69	288	3360	9.780667
1199.69	287	3376.67	9.784037
1200.69	286	4040	9.787407
1201.69	285	4506.67	9.790777
1202.69	284	3940	9.794147
1203.69	283	3073.33	9.797517
1204.69	282	2960	9.800887
1205.69	281	3036.67	9.804257
1206.69	280	2926.67	9.807627
1207.69	279	2920	9.810997
1208.69	278	2930	9.814367
1209.69	277	3016.67	9.817737
1210.69	276	2926.67	9.821107
1211.69	275	2940	9.824477
1212.69	274	2956.67	9.827847
1213.69	273	2986.67	9.831217
1214.69	272	3053.33	9.834587
1215.69	271	2860	9.837957
1216.69	270	3110	9.841327
1217.69	269	3226.67	9.844697
1218.69	268	3183.33	9.848067
1219.69	267	3143.33	9.851437
1220.69	266	3076.67	9.854807
1221.69	265	3053.33	9.858177
1222.69	264	3030	9.861547
1223.69	263	3136.67	9.864917
1224.69	262	3280	9.868287
1225.69	261	3120	9.871657
1226.69	260	3200	9.875027
1227.69	259	3363.33	9.878397
1228.69	258	3123.33	9.881767
1229.69	257	3143.33	9.885137
1230.69	256	3086.67	9.888507
1231.69	255	3273.33	9.891877
1232.69	254	3093.33	9.895247
1233.69	253	3220	9.898617
1234.69	252	3160	9.901987
1235.69	251	3273.33	9.905357
1236.69	250	3383.33	9.909562
1237.69	249	3116.67	9.914044
1238.69	248	3220	9.918526
1239.69	247	3296.67	9.923009
1240.69	246	3216.67	9.927491
1241.69	245	3163.33	9.931974
1242.69	244	3300	9.936456
1243.69	243	3390	9.940939
1244.69	242	3240	9.945421
1245.69	241	3346.67	9.949903
1246.69	240	3200	9.954386
1247.69	239	3226.67	9.958868
1248.69	238	3346.67	9.963351
1249.69	237	3350	9.967833
1250.69	236	3290	9.972316
1251.69	235	3133.33	9.976798
1252.69	234	3343.33	9.981280
1253.69	233	3450	9.985763
1254.69	232	3486.67	9.990245
1255.69	231	3406.67	9.994728
1256.69	230	3296.67	9.999210
1257.69	229	3403.33	10.0037
1258.69	228	3353.33	10.0082
1259.69	227	3600	10.0127
1260.69	226	3426.67	10.0171
1261.69	225	3516.67	10.0216
1262.69	224	3506.67	10.0261
1263.69	223	3480	10.0306
1264.69	222	3400	10.0351
1265.69	221	3456.67	10.0396
1266.69	220	3356.67	10.044
1267.69	219	3506.67	10.0485
1268.69	218	3593.33	10.053
1269.69	217	3456.67	10.0575
1270.69	216	3380	10.062
1271.69	215	3390	10.0664
1272.69	214	3673.33	10.0709
1273.69	213	3456.67	10.0754
1274.69	212	3636.67	10.0799
1275.69	211	3633.33	10.0844
1276.69	210	3383.33	10.0889
1277.69	209	3583.33	10.0933
1278.69	208	3573.33	10.0978
1279.69	207	3576.67	10.1023
1280.69	206	3666.67	10.1068
1281.69	205	3493.33	10.1113
1282.69	204	3610	10.1158
1283.69	203	3533.33	10.1202
1284.69	202	3450	10.1247
1285.69	201	3670	10.1292
1286.69	200	3713.33	10.1337
1287.69	199	3856.67	10.1382
1288.69	198	3883.33	10.1426
1289.69	197	3616.67	10.1471
1290.69	196	3960	10.1516
1291.69	195	3733.33	10.1561
1292.69	194	3870	10.1606
1293.69	193	3596.67	10.1651
1294.69	192	3733.33	10.1695
1295.69	191	3733.33	10.174
1296.69	190	3790	10.1785
1297.69	189	3836.67	10.183
1298.69	188	3830	10.1875
1299.69	187	3783.33	10.192
1300.69	186	3910	10.1964
1301.69	185	3693.33	10.2009
1302.69	184	3900	10.2054
1303.69	183	3843.33	10.2099
1304.69	182	4006.67	10.2144
1305.69	181	3740	10.2188
1306.69	180	3713.33	10.2233
1307.69	179	3990	10.2278
1308.69	178	3840	10.2323
1309.69	177	3963.33	10.2368
1310.69	176	3933.33	10.2413
1311.69	175	3846.67	10.2457
1312.69	174	3943.33	10.2502
1313.69	173	3896.67	10.2547
1314.69	172	4166.67	10.2592
1315.69	171	3956.67	10.2637
1316.69	170	4143.33	10.2682
1317.69	169	4023.33	10.2726
1318.69	168	3990	10.2771
1319.69	167	3900	10.2816
1320.69	166	3886.67	10.2861
1321.69	165	3990	10.2906
1322.69	164	4003.33	10.2951
1323.69	163	3850	10.2995
1324.69	162	4186.67	10.304
1325.69	161	4000	10.3085
1326.69	160	4086.67	10.313
1327.69	159	4156.67	10.3175
1328.69	158	3923.33	10.3219
1329.69	157	4120	10.3265
1330.69	156	4193.33	10.3312
1331.69	155	4090	10.3359
1332.69	154	4396.67	10.3407
1333.69	153	4336.67	10.3454
1334.69	152	4223.33	10.3501
1335.69	151	4220	10.3549
1336.69	150	4380	10.3596
1337.69	149	4246.67	10.3643
1338.69	148	4510	10.3691
1339.69	147	4383.33	10.3738
1340.69	146	4260	10.3785
1341.69	145	4473.33	10.3833
1342.69	144	4483.33	10.388
1343.69	143	4533.33	10.3927
1344.69	142	4343.33	10.3974
1345.69	141	4360	10.4022
1346.69	140	4776.67	10.4069
1347.69	139	4223.33	10.4116
1348.69	138	4703.33	10.4164
1349.69	137	4496.67	10.4211
1350.69	136	4350	10.4258
1351.69	135	4483.33	10.4306
1352.69	134	4526.67	10.4353
1353.69	133	4440	10.44
1354.69	132	4560	10.4447
1355.69	131	4716.67	10.4495
1356.69	130	4556.67	10.4542
1357.69	129	4560	10.4589
1358.69	128	4820	10.4637
1359.69	127	5003.33	10.4684
1360.69	126	5233.33	10.4731
1361.69	125	5646.67	10.4779
1362.69	124	6066.67	10.4826
1363.69	123	6123.33	10.4873
1364.69	122	5366.67	10.4921
1365.69	121	4996.67	10.4968
1366.69	120	4803.33	10.5015
1367.69	119	4666.67	10.5062
1368.69	118	4643.33	10.511
1369.69	117	4183.33	10.5157
1370.69	116	4450	10.5204
1371.69	115	4353.33	10.5252
1372.69	114	4420	10.5299
1373.69	113	4400	10.5346
1374.69	112	4390	10.5394
1375.69	111	4493.33	10.5441
1376.69	110	4386.67	10.5488
1377.69	109	4443.33	10.5535
1378.69	108	4450	10.5583
1379.69	107	4670	10.563
1380.69	106	4626.67	10.5677
1381.69	105	4463.33	10.5725
1382.69	104	4560	10.5772
1383.69	103	4820	10.5819
1384.69	102	4760	10.5867
1385.69	101	4830	10.5914
1386.69	100	4846.67	10.5961
1387.69	99	4680	10.6009
1388.69	98	4760	10.6056
1389.69	97	4716.67	10.6103
1390.69	96	5100	10.615
1391.69	95	5073.33	10.6198
1392.69	94	5140	10.6245
1393.69	93	5050	10.6292
1394.69	92	5500	10.634
1395.69	91	5343.33	10.6387
1396.69	90	5430	10.6434
1397.69	89	5476.67	10.6482
1398.69	88	5686.67	10.6529
1399.69	87	5763.33	10.6576
1400.69	86	5793.33	10.6623
1401.69	85	6023.33	10.6671
1402.69	84	5940	10.6718
1403.69	83	5856.67	10.6765
1404.69	82	6120	10.6813
1405.69	81	6160	10.686
1406.69	80	6206.67	10.6907
1407.69	79	6330	10.6955
1408.69	78	6140	10.7002
1409.69	77	5803.33	10.7049
1410.69	76	5273.33	10.7097
1411.69	75	5146.67	10.7144
1412.69	74	4516.67	10.7191
1413.69	73	4260	10.7238
1414.69	72	4066.67	10.7286
1415.69	71	3756.67	10.7333
1416.69	70	3353.33	10.738
1417.69	69	3320	10.7428
1418.69	68	3140	10.7475
1419.69	67	2880	10.7522
1420.69	66	2723.33	10.757
1421.69	65	2576.67	10.7617
1422.69	64	2600	10.7664
1423.69	63	2680	10.7712
1424.69	62	2616.67	10.7759
1425.69	61	2516.67	10.7806
1426.69	60	2503.33	10.7853
1427.69	59	2460	10.7901
1428.69	58	2593.33	10.7948
1429.69	57	2556.67	10.7995
1430.69	56	2566.67	10.8043
1431.69	55	2496.67	10.809
1432.69	54	2543.33	10.8137
1433.69	53	2486.67	10.8185
1434.69	52	2456.67	10.8232
1435.69	51	2500	10.8279
1436.69	50	2693.33	10.8326
1437.69	49	2753.33	10.8374
1438.69	48	2773.33	10.8421
1439.69	47	2646.67	10.8468
1440.69	46	2816.67	10.8516
1441.69	45	2790	10.8563
1442.69	44	2773.33	10.861
1443.69	43	2880	10.8658
1444.69	42	2823.33	10.8705
1445.69	41	2946.67	10.8752
1446.69	40	2990	10.88
1447.69	39	2986.67	10.8847
1448.69	38	3066.67	10.8894
1449.69	37	3006.67	10.8941
1450.69	36	3013.33	10.8989
1451.69	35	3143.33	10.9036
1452.69	34	2906.67	10.9083
1453.69	33	2820	10.9131
1454.69	32	2596.67	10.9178
1455.69	31	2456.67	10.9225
1456.69	30	2640	10.9273
1457.69	29	2740	10.932
1458.69	28	3390	10.9367
1459.69	27	4366.67	10.9414
1460.69	26	4323.33	10.9462
1461.69	25	3076.67	10.9509
1462.69	24	2690	10.9556
1463.69	23	2846.67	10.9559
1464.69	22	3146.67	10.9559
1465.69	21	4253.33	10.9559
1466.69	20	8873.33	10.9559
1467.69	19	18223.3	10.9559
1468.69	18	23146.7	10.9559
1469.69	17	14563.3	10.9559
1470.69	16	4170	10.9559
1471.69	15	1376.67	10.9559
1472.69	14	706.667	10.9559
1473.69	13	623.333	10.9559
1474.69	12	400	10.9559
1475.69	11	406.667	10.9559
1476.69	10	606.667	10.9559
1477.69	9.000000	736.667	10.9559
1478.69	8.000000	880	10.9559
1479.69	7.000000	1006.67	10.9559
1480.69	6.000000	996.667	10.9559
1481.69	5.000000	1033.33	10.9559
1482.69	4.000000	940	10.9559
1483.69	3.000000	540	10.9559
1484.69	2.000000	136.667	10.9559
1485.69	1.000000	53.3333	10.9559
1486.69	0.000000	56.6667	10.9559
1487.69	-1.000000	46.6667	10.9559
1488.69	-2.000000	23.3333	10.9559
1489.69	-3.000000	20	10.9559
1490.69	-4.000000	6.666667	10.9559
1491.69	-5.000000	0.000000	10.9559