File: KHU_project/Photoelectron_Spectroscopy/XPS_Analysis/DNN/.codes/GaN_sessa.txt
4.000000e+02	3.813351e-01
4.010605e+02	3.815848e-01
4.021211e+02	3.818352e-01
4.031816e+02	3.820864e-01
4.042422e+02	3.823382e-01
4.053027e+02	3.825906e-01
4.063633e+02	3.828436e-01
4.074238e+02	3.830976e-01
4.084844e+02	3.833519e-01
4.095449e+02	3.836070e-01
4.106055e+02	3.838630e-01
4.116660e+02	3.841195e-01
4.127266e+02	3.843768e-01
4.137871e+02	3.846347e-01
4.148477e+02	3.848936e-01
4.159082e+02	3.851531e-01
4.169688e+02	3.854132e-01
4.180293e+02	3.856743e-01
4.190898e+02	3.859360e-01
4.201504e+02	3.861985e-01
4.212109e+02	3.864618e-01
4.222715e+02	3.867257e-01
4.233320e+02	3.869906e-01
4.243926e+02	3.872562e-01
4.254531e+02	3.875225e-01
4.265137e+02	3.877897e-01
4.275742e+02	3.880576e-01
4.286348e+02	3.883263e-01
4.296953e+02	3.885957e-01
4.307559e+02	3.888658e-01
4.318164e+02	3.891366e-01
4.328770e+02	3.894082e-01
4.339375e+02	3.896804e-01
4.349980e+02	3.899533e-01
4.360586e+02	3.902270e-01
4.371191e+02	3.905010e-01
4.381797e+02	3.907755e-01
4.392402e+02	3.910505e-01
4.403008e+02	3.913261e-01
4.413613e+02	3.916019e-01
4.424219e+02	3.918781e-01
4.434824e+02	3.921545e-01
4.445430e+02	3.924309e-01
4.456035e+02	3.927072e-01
4.466641e+02	3.929840e-01
4.477246e+02	3.932602e-01
4.487852e+02	3.935361e-01
4.498457e+02	3.938118e-01
4.509062e+02	3.940870e-01
4.519668e+02	3.943618e-01
4.530273e+02	3.946361e-01
4.540879e+02	3.949100e-01
4.551484e+02	3.951835e-01
4.562090e+02	3.954570e-01
4.572695e+02	3.957303e-01
4.583301e+02	3.960043e-01
4.593906e+02	3.962796e-01
4.604512e+02	3.965570e-01
4.615117e+02	3.968385e-01
4.625723e+02	3.971257e-01
4.636328e+02	3.974215e-01
4.646934e+02	3.977304e-01
4.657539e+02	3.980586e-01
4.668145e+02	3.984151e-01
4.678750e+02	3.988142e-01
4.689355e+02	3.992772e-01
4.699961e+02	3.998392e-01
4.710566e+02	4.005563e-01
4.721172e+02	4.015209e-01
4.731777e+02	4.028779e-01
4.742383e+02	4.048105e-01
4.752988e+02	4.073421e-01
4.763594e+02	4.096988e-01
4.774199e+02	4.101672e-01
4.784805e+02	4.084841e-01
4.795410e+02	4.063148e-01
4.806016e+02	4.046835e-01
4.816621e+02	4.036704e-01
4.827227e+02	4.031044e-01
4.837832e+02	4.028379e-01
4.848438e+02	4.027790e-01
4.859043e+02	4.028817e-01
4.869648e+02	4.031316e-01
4.880254e+02	4.035416e-01
4.890859e+02	4.041541e-01
4.901465e+02	4.050520e-01
4.912070e+02	4.063811e-01
4.922676e+02	4.083829e-01
4.933281e+02	4.114052e-01
4.943887e+02	4.157107e-01
4.954492e+02	4.205605e-01
4.965098e+02	4.229814e-01
4.975703e+02	4.206680e-01
4.986309e+02	4.160195e-01
4.996914e+02	4.119565e-01
5.007520e+02	4.091907e-01
5.018125e+02	4.074646e-01
5.028730e+02	4.064447e-01
5.039336e+02	4.059081e-01
5.049941e+02	4.057332e-01
5.060547e+02	4.058702e-01
5.071152e+02	4.063275e-01
5.081758e+02	4.071701e-01
5.092363e+02	4.085353e-01
5.102969e+02	4.106703e-01
5.113574e+02	4.139932e-01
5.124180e+02	4.191515e-01
5.134785e+02	4.268711e-01
5.145391e+02	4.367815e-01
5.155996e+02	4.445034e-01
5.166602e+02	4.431964e-01
5.177207e+02	4.342306e-01
5.187812e+02	4.246479e-01
5.198418e+02	4.175704e-01
5.209023e+02	4.128897e-01
5.219629e+02	4.098512e-01
5.230234e+02	4.078585e-01
5.240840e+02	4.065309e-01
5.251445e+02	4.056368e-01
5.262051e+02	4.050325e-01
5.272656e+02	4.046284e-01
5.283262e+02	4.043663e-01
5.293867e+02	4.042071e-01
5.304473e+02	4.041251e-01
5.315078e+02	4.041009e-01
5.325684e+02	4.041219e-01
5.336289e+02	4.041780e-01
5.346895e+02	4.042624e-01
5.357500e+02	4.043692e-01
5.368105e+02	4.044946e-01
5.378711e+02	4.046354e-01
5.389316e+02	4.047887e-01
5.399922e+02	4.049530e-01
5.410527e+02	4.051261e-01
5.421133e+02	4.053070e-01
5.431738e+02	4.054949e-01
5.442344e+02	4.056881e-01
5.452949e+02	4.058871e-01
5.463555e+02	4.060901e-01
5.474160e+02	4.062973e-01
5.484766e+02	4.065079e-01
5.495371e+02	4.067217e-01
5.505977e+02	4.069383e-01
5.516582e+02	4.071572e-01
5.527188e+02	4.073786e-01
5.537793e+02	4.076020e-01
5.548398e+02	4.078278e-01
5.559004e+02	4.080548e-01
5.569609e+02	4.082837e-01
5.580215e+02	4.085139e-01
5.590820e+02	4.087458e-01
5.601426e+02	4.089789e-01
5.612031e+02	4.092130e-01
5.622637e+02	4.094484e-01
5.633242e+02	4.096849e-01
5.643848e+02	4.099226e-01
5.654453e+02	4.101608e-01
5.665059e+02	4.104000e-01
5.675664e+02	4.106403e-01
5.686270e+02	4.108813e-01
5.696875e+02	4.111229e-01
5.707480e+02	4.113655e-01
5.718086e+02	4.116090e-01
5.728691e+02	4.118526e-01
5.739297e+02	4.120974e-01
5.749902e+02	4.123425e-01
5.760508e+02	4.125883e-01
5.771113e+02	4.128346e-01
5.781719e+02	4.130816e-01
5.792324e+02	4.133289e-01
5.802930e+02	4.135772e-01
5.813535e+02	4.138257e-01
5.824141e+02	4.140750e-01
5.834746e+02	4.143246e-01
5.845352e+02	4.145747e-01
5.855957e+02	4.148253e-01
5.866562e+02	4.150763e-01
5.877168e+02	4.153276e-01
5.887773e+02	4.155797e-01
5.898379e+02	4.158323e-01
5.908984e+02	4.160848e-01
5.919590e+02	4.163381e-01
5.930195e+02	4.165918e-01
5.940801e+02	4.168460e-01
5.951406e+02	4.171003e-01
5.962012e+02	4.173555e-01
5.972617e+02	4.176107e-01
5.983223e+02	4.178661e-01
5.993828e+02	4.181219e-01
6.004434e+02	4.183786e-01
6.015039e+02	4.186355e-01
6.025645e+02	4.188927e-01
6.036250e+02	4.191501e-01
6.046855e+02	4.194080e-01
6.057461e+02	4.196663e-01
6.068066e+02	4.199248e-01
6.078672e+02	4.201839e-01
6.089277e+02	4.204431e-01
6.099883e+02	4.207027e-01
6.110488e+02	4.209628e-01
6.121094e+02	4.212230e-01
6.131699e+02	4.214836e-01
6.142305e+02	4.217446e-01
6.152910e+02	4.220058e-01
6.163516e+02	4.222675e-01
6.174121e+02	4.225294e-01
6.184727e+02	4.227917e-01
6.195332e+02	4.230542e-01
6.205938e+02	4.233171e-01
6.216543e+02	4.235802e-01
6.227148e+02	4.238437e-01
6.237754e+02	4.241076e-01
6.248359e+02	4.243716e-01
6.258965e+02	4.246361e-01
6.269570e+02	4.249008e-01
6.280176e+02	4.251658e-01
6.290781e+02	4.254311e-01
6.301387e+02	4.256966e-01
6.311992e+02	4.259625e-01
6.322598e+02	4.262287e-01
6.333203e+02	4.264950e-01
6.343809e+02	4.267618e-01
6.354414e+02	4.270287e-01
6.365020e+02	4.272960e-01
6.375625e+02	4.275635e-01
6.386230e+02	4.278312e-01
6.396836e+02	4.280995e-01
6.407441e+02	4.283676e-01
6.418047e+02	4.286363e-01
6.428652e+02	4.289051e-01
6.439258e+02	4.291744e-01
6.449863e+02	4.294437e-01
6.460469e+02	4.297131e-01
6.471074e+02	4.299831e-01
6.481680e+02	4.302533e-01
6.492285e+02	4.305237e-01
6.502891e+02	4.307942e-01
6.513496e+02	4.310652e-01
6.524102e+02	4.313361e-01
6.534707e+02	4.316075e-01
6.545312e+02	4.318789e-01
6.555918e+02	4.321506e-01
6.566523e+02	4.324226e-01
6.577129e+02	4.326949e-01
6.587734e+02	4.329672e-01
6.598340e+02	4.332400e-01
6.608945e+02	4.335130e-01
6.619551e+02	4.337859e-01
6.630156e+02	4.340592e-01
6.640762e+02	4.343328e-01
6.651367e+02	4.346063e-01
6.661973e+02	4.348800e-01
6.672578e+02	4.351540e-01
6.683184e+02	4.354283e-01
6.693789e+02	4.357028e-01
6.704395e+02	4.359773e-01
6.715000e+02	4.362523e-01
6.725605e+02	4.365272e-01
6.736211e+02	4.368023e-01
6.746816e+02	4.370776e-01
6.757422e+02	4.373529e-01
6.768027e+02	4.376285e-01
6.778633e+02	4.379043e-01
6.789238e+02	4.381799e-01
6.799844e+02	4.384562e-01
6.810449e+02	4.387323e-01
6.821055e+02	4.390087e-01
6.831660e+02	4.392852e-01
6.842266e+02	4.395618e-01
6.852871e+02	4.398384e-01
6.863477e+02	4.401152e-01
6.874082e+02	4.403919e-01
6.884688e+02	4.406690e-01
6.895293e+02	4.409462e-01
6.905898e+02	4.412233e-01
6.916504e+02	4.415007e-01
6.927109e+02	4.417780e-01
6.937715e+02	4.420554e-01
6.948320e+02	4.423329e-01
6.958926e+02	4.426106e-01
6.969531e+02	4.428881e-01
6.980137e+02	4.431659e-01
6.990742e+02	4.434436e-01
7.001348e+02	4.437215e-01
7.011953e+02	4.439992e-01
7.022559e+02	4.442772e-01
7.033164e+02	4.445551e-01
7.043770e+02	4.448330e-01
7.054375e+02	4.451109e-01
7.064980e+02	4.453890e-01
7.075586e+02	4.456666e-01
7.086191e+02	4.459445e-01
7.096797e+02	4.462223e-01
7.107402e+02	4.465002e-01
7.118008e+02	4.467781e-01
7.128613e+02	4.470559e-01
7.139219e+02	4.473337e-01
7.149824e+02	4.476113e-01
7.160430e+02	4.478889e-01
7.171035e+02	4.481665e-01
7.181641e+02	4.484440e-01
7.192246e+02	4.487211e-01
7.202852e+02	4.489985e-01
7.213457e+02	4.492754e-01
7.224062e+02	4.495526e-01
7.234668e+02	4.498293e-01
7.245273e+02	4.501061e-01
7.255879e+02	4.503829e-01
7.266484e+02	4.506593e-01
7.277090e+02	4.509355e-01
7.287695e+02	4.512117e-01
7.298301e+02	4.514876e-01
7.308906e+02	4.517634e-01
7.319512e+02	4.520388e-01
7.330117e+02	4.523141e-01
7.340723e+02	4.525891e-01
7.351328e+02	4.528640e-01
7.361934e+02	4.531388e-01
7.372539e+02	4.534130e-01
7.383145e+02	4.536868e-01
7.393750e+02	4.539606e-01
7.404355e+02	4.542342e-01
7.414961e+02	4.545072e-01
7.425566e+02	4.547800e-01
7.436172e+02	4.550525e-01
7.446777e+02	4.553246e-01
7.457383e+02	4.555965e-01
7.467988e+02	4.558675e-01
7.478594e+02	4.561387e-01
7.489199e+02	4.564092e-01
7.499805e+02	4.566794e-01
7.510410e+02	4.569491e-01
7.521016e+02	4.572184e-01
7.531621e+02	4.574872e-01
7.542227e+02	4.577553e-01
7.552832e+02	4.580232e-01
7.563438e+02	4.582906e-01
7.574043e+02	4.585572e-01
7.584648e+02	4.588234e-01
7.595254e+02	4.590892e-01
7.605859e+02	4.593542e-01
7.616465e+02	4.596188e-01
7.627070e+02	4.598825e-01
7.637676e+02	4.601458e-01
7.648281e+02	4.604084e-01
7.658887e+02	4.606701e-01
7.669492e+02	4.609316e-01
7.680098e+02	4.611921e-01
7.690703e+02	4.614518e-01
7.701309e+02	4.617109e-01
7.711914e+02	4.619692e-01
7.722520e+02	4.622266e-01
7.733125e+02	4.624834e-01
7.743730e+02	4.627391e-01
7.754336e+02	4.629941e-01
7.764941e+02	4.632483e-01
7.775547e+02	4.635017e-01
7.786152e+02	4.637540e-01
7.796758e+02	4.640053e-01
7.807363e+02	4.642558e-01
7.817969e+02	4.645051e-01
7.828574e+02	4.647535e-01
7.839180e+02	4.650009e-01
7.849785e+02	4.652471e-01
7.860391e+02	4.654925e-01
7.870996e+02	4.657367e-01
7.881602e+02	4.659797e-01
7.892207e+02	4.662214e-01
7.902812e+02	4.664619e-01
7.913418e+02	4.667017e-01
7.924023e+02	4.669397e-01
7.934629e+02	4.671766e-01
7.945234e+02	4.674122e-01
7.955840e+02	4.676465e-01
7.966445e+02	4.678796e-01
7.977051e+02	4.681109e-01
7.987656e+02	4.683410e-01
7.998262e+02	4.685697e-01
8.008867e+02	4.687968e-01
8.019473e+02	4.690223e-01
8.030078e+02	4.692465e-01
8.040684e+02	4.694690e-01
8.051289e+02	4.696899e-01
8.061895e+02	4.699091e-01
8.072500e+02	4.701268e-01
8.083105e+02	4.703426e-01
8.093711e+02	4.705568e-01
8.104316e+02	4.707690e-01
8.114922e+02	4.709795e-01
8.125527e+02	4.711883e-01
8.136133e+02	4.713949e-01
8.146738e+02	4.715997e-01
8.157344e+02	4.718026e-01
8.167949e+02	4.720035e-01
8.178555e+02	4.722024e-01
8.189160e+02	4.723988e-01
8.199766e+02	4.725936e-01
8.210371e+02	4.727860e-01
8.220977e+02	4.729762e-01
8.231582e+02	4.731643e-01
8.242188e+02	4.733501e-01
8.252793e+02	4.735336e-01
8.263398e+02	4.737149e-01
8.274004e+02	4.738934e-01
8.284609e+02	4.740697e-01
8.295215e+02	4.742434e-01
8.305820e+02	4.744150e-01
8.316426e+02	4.745836e-01
8.327031e+02	4.747496e-01
8.337637e+02	4.749134e-01
8.348242e+02	4.750744e-01
8.358848e+02	4.752325e-01
8.369453e+02	4.753880e-01
8.380059e+02	4.755405e-01
8.390664e+02	4.756901e-01
8.401270e+02	4.758369e-01
8.411875e+02	4.759806e-01
8.422480e+02	4.761211e-01
8.433086e+02	4.762584e-01
8.443691e+02	4.763926e-01
8.454297e+02	4.765233e-01
8.464902e+02	4.766503e-01
8.475508e+02	4.767737e-01
8.486113e+02	4.768933e-01
8.496719e+02	4.770088e-01
8.507324e+02	4.771200e-01
8.517930e+02	4.772268e-01
8.528535e+02	4.773287e-01
8.539141e+02	4.774257e-01
8.549746e+02	4.775174e-01
8.560352e+02	4.776029e-01
8.570957e+02	4.776824e-01
8.581562e+02	4.777551e-01
8.592168e+02	4.778207e-01
8.602773e+02	4.778787e-01
8.613379e+02	4.779285e-01
8.623984e+02	4.779694e-01
8.634590e+02	4.780010e-01
8.645195e+02	4.780226e-01
8.655801e+02	4.780338e-01
8.666406e+02	4.780334e-01
8.677012e+02	4.780216e-01
8.687617e+02	4.779977e-01
8.698223e+02	4.779614e-01
8.708828e+02	4.779128e-01
8.719434e+02	4.778527e-01
8.730039e+02	4.777809e-01
8.740645e+02	4.776992e-01
8.751250e+02	4.776090e-01
8.761855e+02	4.775139e-01
8.772461e+02	4.774184e-01
8.783066e+02	4.773287e-01
8.793672e+02	4.772547e-01
8.804277e+02	4.772110e-01
8.814883e+02	4.772189e-01
8.825488e+02	4.773108e-01
8.836094e+02	4.775391e-01
8.846699e+02	4.779868e-01
8.857305e+02	4.787896e-01
8.867910e+02	4.801652e-01
8.878516e+02	4.824187e-01
8.889121e+02	4.857607e-01
8.899727e+02	4.894968e-01
8.910332e+02	4.910983e-01
8.920938e+02	4.887480e-01
8.931543e+02	4.844593e-01
8.942148e+02	4.806602e-01
8.952754e+02	4.779489e-01
8.963359e+02	4.760961e-01
8.973965e+02	4.748004e-01
8.984570e+02	4.738507e-01
8.995176e+02	4.731153e-01
9.005781e+02	4.725140e-01
9.016387e+02	4.719971e-01
9.026992e+02	4.715344e-01
9.037598e+02	4.711064e-01
9.048203e+02	4.707029e-01
9.058809e+02	4.703190e-01
9.069414e+02	4.699570e-01
9.080020e+02	4.696243e-01
9.090625e+02	4.693371e-01
9.101230e+02	4.691236e-01
9.111836e+02	4.690296e-01
9.122441e+02	4.691305e-01
9.133047e+02	4.695493e-01
9.143652e+02	4.704741e-01
9.154258e+02	4.721351e-01
9.164863e+02	4.745587e-01
9.175469e+02	4.769521e-01
9.186074e+02	4.780259e-01
9.196680e+02	4.783317e-01
9.207285e+02	4.797852e-01
9.217891e+02	4.826039e-01
9.228496e+02	4.839033e-01
9.239102e+02	4.805575e-01
9.249707e+02	4.742820e-01
9.260312e+02	4.684091e-01
9.270918e+02	4.640084e-01
9.281523e+02	4.608382e-01
9.292129e+02	4.584849e-01
9.302734e+02	4.566517e-01
9.313340e+02	4.551603e-01
9.323945e+02	4.539144e-01
9.334551e+02	4.528760e-01
9.345156e+02	4.520541e-01
9.355762e+02	4.515152e-01
9.366367e+02	4.514109e-01
9.376973e+02	4.520670e-01
9.387578e+02	4.542131e-01
9.398184e+02	4.597331e-01
9.408789e+02	4.746925e-01
9.419395e+02	5.270661e-01
9.430000e+02	7.722582e-01
9.440605e+02	7.503554e-01
9.451211e+02	5.203582e-01
9.461816e+02	4.718626e-01
9.472422e+02	4.582743e-01
9.483027e+02	4.543216e-01
9.493633e+02	4.532406e-01
9.504238e+02	4.508593e-01
9.514844e+02	4.461186e-01
9.525449e+02	4.410280e-01
9.536055e+02	4.369179e-01
9.546660e+02	4.338279e-01
9.557266e+02	4.314485e-01
9.567871e+02	4.295165e-01
9.578477e+02	4.278606e-01
9.589082e+02	4.263769e-01
9.599688e+02	4.250045e-01
9.610293e+02	4.237100e-01
9.620898e+02	4.224805e-01
9.631504e+02	4.213192e-01
9.642109e+02	4.202464e-01
9.652715e+02	4.193038e-01
9.663320e+02	4.185608e-01
9.673926e+02	4.181326e-01
9.684531e+02	4.182046e-01
9.695137e+02	4.190777e-01
9.705742e+02	4.212234e-01
9.716348e+02	4.252686e-01
9.726953e+02	4.315280e-01
9.737559e+02	4.383970e-01
9.748164e+02	4.417703e-01
9.758770e+02	4.410093e-01
9.769375e+02	4.414117e-01
9.779980e+02	4.467709e-01
9.790586e+02	4.547635e-01
9.801191e+02	4.561640e-01
9.811797e+02	4.453478e-01
9.822402e+02	4.294244e-01
9.833008e+02	4.158668e-01
9.843613e+02	4.061764e-01
9.854219e+02	3.994462e-01
9.864824e+02	3.946513e-01
9.875430e+02	3.910908e-01
9.886035e+02	3.883325e-01
9.896641e+02	3.861167e-01
9.907246e+02	3.842888e-01
9.917852e+02	3.827632e-01
9.928457e+02	3.815016e-01
9.939062e+02	3.805086e-01
9.949668e+02	3.798336e-01
9.960273e+02	3.795860e-01
9.970879e+02	3.799608e-01
9.981484e+02	3.812585e-01
9.992090e+02	3.837842e-01
1.000270e+03	3.872755e-01
1.001330e+03	3.899378e-01
1.002391e+03	3.899807e-01
1.003451e+03	3.891290e-01
1.004512e+03	3.903260e-01
1.005572e+03	3.940270e-01
1.006633e+03	3.968126e-01
1.007693e+03	3.936792e-01
1.008754e+03	3.855571e-01
1.009814e+03	3.773017e-01
1.010875e+03	3.710425e-01
1.011936e+03	3.666374e-01
1.012996e+03	3.635012e-01
1.014057e+03	3.611768e-01
1.015117e+03	3.593719e-01
1.016178e+03	3.579066e-01
1.017238e+03	3.566686e-01
1.018299e+03	3.555863e-01
1.019359e+03	3.546126e-01
1.020420e+03	3.537160e-01
1.021480e+03	3.528735e-01
1.022541e+03	3.520691e-01
1.023602e+03	3.512908e-01
1.024662e+03	3.505291e-01
1.025723e+03	3.497770e-01
1.026783e+03	3.490279e-01
1.027844e+03	3.482766e-01
1.028904e+03	3.475182e-01
1.029965e+03	3.467483e-01
1.031025e+03	3.459625e-01
1.032086e+03	3.451563e-01
1.033146e+03	3.443254e-01
1.034207e+03	3.434651e-01
1.035268e+03	3.425704e-01
1.036328e+03	3.416364e-01
1.037389e+03	3.406572e-01
1.038449e+03	3.396274e-01
1.039510e+03	3.385409e-01
1.040570e+03	3.373913e-01
1.041631e+03	3.361720e-01
1.042691e+03	3.348763e-01
1.043752e+03	3.334981e-01
1.044812e+03	3.320310e-01
1.045873e+03	3.304694e-01
1.046934e+03	3.288092e-01
1.047994e+03	3.270463e-01
1.049055e+03	3.251806e-01
1.050115e+03	3.232134e-01
1.051176e+03	3.211512e-01
1.052236e+03	3.190054e-01
1.053297e+03	3.167962e-01
1.054357e+03	3.145537e-01
1.055418e+03	3.123244e-01
1.056479e+03	3.101762e-01
1.057539e+03	3.082106e-01
1.058600e+03	3.065782e-01
1.059660e+03	3.055071e-01
1.060721e+03	3.053491e-01
1.061781e+03	3.066594e-01
1.062842e+03	3.103355e-01
1.063902e+03	3.178412e-01
1.064963e+03	3.314982e-01
1.066023e+03	3.544142e-01
1.067084e+03	3.880043e-01
1.068145e+03	4.227468e-01
1.069205e+03	4.316823e-01
1.070266e+03	4.022482e-01
1.071326e+03	3.586770e-01
1.072387e+03	3.228193e-01
1.073447e+03	2.994040e-01
1.074508e+03	2.893023e-01
1.075568e+03	3.092794e-01
1.076629e+03	3.937251e-01
1.077689e+03	3.023281e-01
1.078750e+03	2.563327e-01
1.079811e+03	2.425056e-01
1.080871e+03	2.356894e-01
1.081932e+03	2.315062e-01
1.082992e+03	2.288700e-01
1.084053e+03	2.275654e-01
1.085113e+03	2.277942e-01
1.086174e+03	2.301168e-01
1.087234e+03	2.354522e-01
1.088295e+03	2.446659e-01
1.089355e+03	2.565443e-01
1.090416e+03	2.648426e-01
1.091477e+03	2.642044e-01
1.092537e+03	2.607351e-01
1.093598e+03	2.632686e-01
1.094658e+03	2.726778e-01
1.095719e+03	2.790816e-01
1.096779e+03	2.696960e-01
1.097840e+03	2.484157e-01
1.098900e+03	2.278682e-01
1.099961e+03	2.129687e-01
1.101021e+03	2.031896e-01
1.102082e+03	1.971275e-01
1.103143e+03	1.936674e-01
1.104203e+03	1.915906e-01
1.105264e+03	1.891884e-01
1.106324e+03	1.857078e-01
1.107385e+03	1.821548e-01
1.108445e+03	1.793948e-01
1.109506e+03	1.775557e-01
1.110566e+03	1.765601e-01
1.111627e+03	1.764125e-01
1.112688e+03	1.772812e-01
1.113748e+03	1.795304e-01
1.114809e+03	1.836383e-01
1.115869e+03	1.895246e-01
1.116930e+03	1.946804e-01
1.117990e+03	1.942967e-01
1.119051e+03	1.880568e-01
1.120111e+03	1.807104e-01
1.121172e+03	1.750182e-01
1.122232e+03	1.711262e-01
1.123293e+03	1.685093e-01
1.124354e+03	1.667142e-01
1.125414e+03	1.654451e-01
1.126475e+03	1.645203e-01
1.127535e+03	1.638271e-01
1.128596e+03	1.632944e-01
1.129656e+03	1.628754e-01
1.130717e+03	1.625389e-01
1.131777e+03	1.622630e-01
1.132838e+03	1.620321e-01
1.133898e+03	1.618347e-01
1.134959e+03	1.616625e-01
1.136020e+03	1.615086e-01
1.137080e+03	1.613684e-01
1.138141e+03	1.612384e-01
1.139201e+03	1.611155e-01
1.140262e+03	1.609988e-01
1.141322e+03	1.608875e-01
1.142383e+03	1.607827e-01
1.143443e+03	1.606866e-01
1.144504e+03	1.606037e-01
1.145564e+03	1.605413e-01
1.146625e+03	1.605105e-01
1.147686e+03	1.605290e-01
1.148746e+03	1.606242e-01
1.149807e+03	1.608391e-01
1.150867e+03	1.612423e-01
1.151928e+03	1.619441e-01
1.152988e+03	1.631104e-01
1.154049e+03	1.649275e-01
1.155109e+03	1.673456e-01
1.156170e+03	1.695221e-01
1.157230e+03	1.703192e-01
1.158291e+03	1.703989e-01
1.159352e+03	1.714872e-01
1.160412e+03	1.741081e-01
1.161473e+03	1.766159e-01
1.162533e+03	1.759213e-01
1.163594e+03	1.718932e-01
1.164654e+03	1.674048e-01
1.165715e+03	1.640179e-01
1.166775e+03	1.617561e-01
1.167836e+03	1.602768e-01
1.168896e+03	1.592946e-01
1.169957e+03	1.586231e-01
1.171018e+03	1.581470e-01
1.172078e+03	1.577930e-01
1.173139e+03	1.575139e-01
1.174199e+03	1.572775e-01
1.175260e+03	1.570605e-01
1.176320e+03	1.568464e-01
1.177381e+03	1.566218e-01
1.178441e+03	1.563766e-01
1.179502e+03	1.561022e-01
1.180562e+03	1.557923e-01
1.181623e+03	1.554404e-01
1.182684e+03	1.550440e-01
1.183744e+03	1.545993e-01
1.184805e+03	1.541077e-01
1.185865e+03	1.535698e-01
1.186926e+03	1.529927e-01
1.187986e+03	1.523854e-01
1.189047e+03	1.517651e-01
1.190107e+03	1.511574e-01
1.191168e+03	1.506037e-01
1.192229e+03	1.501679e-01
1.193289e+03	1.499535e-01
1.194350e+03	1.501359e-01
1.195410e+03	1.510274e-01
1.196471e+03	1.532377e-01
1.197531e+03	1.580799e-01
1.198592e+03	1.688496e-01
1.199652e+03	1.958158e-01
1.200713e+03	2.839790e-01
1.201773e+03	6.923968e-01
1.202834e+03	8.529529e-01
1.203895e+03	3.136452e-01
1.204955e+03	1.996953e-01
1.206016e+03	1.655487e-01
1.207076e+03	1.512319e-01
1.208137e+03	1.439160e-01
1.209197e+03	1.396662e-01
1.210258e+03	1.369634e-01
1.211318e+03	1.351228e-01
1.212379e+03	1.337990e-01
1.213439e+03	1.328021e-01
1.214500e+03	1.320209e-01
1.215561e+03	1.313865e-01
1.216621e+03	1.308539e-01
1.217682e+03	1.303927e-01
1.218742e+03	1.299818e-01
1.219803e+03	1.296054e-01
1.220863e+03	1.292521e-01
1.221924e+03	1.289129e-01
1.222984e+03	1.285807e-01
1.224045e+03	1.282497e-01
1.225105e+03	1.279152e-01
1.226166e+03	1.275732e-01
1.227227e+03	1.272205e-01
1.228287e+03	1.268545e-01
1.229348e+03	1.264735e-01
1.230408e+03	1.260761e-01
1.231469e+03	1.256622e-01
1.232529e+03	1.252327e-01
1.233590e+03	1.247900e-01
1.234650e+03	1.243383e-01
1.235711e+03	1.238845e-01
1.236771e+03	1.234387e-01
1.237832e+03	1.230163e-01
1.238893e+03	1.226398e-01
1.239953e+03	1.223420e-01
1.241014e+03	1.221719e-01
1.242074e+03	1.222038e-01
1.243135e+03	1.225532e-01
1.244195e+03	1.234035e-01
1.245256e+03	1.250530e-01
1.246316e+03	1.279864e-01
1.247377e+03	1.329443e-01
1.248438e+03	1.407611e-01
1.249498e+03	1.510976e-01
1.250559e+03	1.592820e-01
1.251619e+03	1.576445e-01
1.252680e+03	1.471261e-01
1.253740e+03	1.356340e-01
1.254801e+03	1.269577e-01
1.255861e+03	1.210542e-01
1.256922e+03	1.170644e-01
1.257982e+03	1.142974e-01
1.259043e+03	1.123144e-01
1.260104e+03	1.108506e-01
1.261164e+03	1.097493e-01
1.262225e+03	1.089203e-01
1.263285e+03	1.083184e-01
1.264346e+03	1.079333e-01
1.265406e+03	1.077893e-01
1.266467e+03	1.079541e-01
1.267527e+03	1.085579e-01
1.268588e+03	1.098181e-01
1.269648e+03	1.120218e-01
1.270709e+03	1.152422e-01
1.271770e+03	1.183844e-01
1.272830e+03	1.187818e-01
1.273891e+03	1.156430e-01
1.274951e+03	1.114924e-01
1.276012e+03	1.081501e-01
1.277072e+03	1.058266e-01
1.278133e+03	1.042432e-01
1.279193e+03	1.031374e-01
1.280254e+03	1.023351e-01
1.281314e+03	1.017291e-01
1.282375e+03	1.012534e-01
1.283436e+03	1.008665e-01
1.284496e+03	1.005415e-01
1.285557e+03	1.002604e-01
1.286617e+03	1.000105e-01
1.287678e+03	9.978297e-02
1.288738e+03	9.957096e-02
1.289799e+03	9.936941e-02
1.290859e+03	9.917400e-02
1.291920e+03	9.898137e-02
1.292980e+03	9.878836e-02
1.294041e+03	9.859226e-02
1.295102e+03	9.839045e-02
1.296162e+03	9.818037e-02
1.297223e+03	9.795953e-02
1.298283e+03	9.772541e-02
1.299344e+03	9.747569e-02
1.300404e+03	9.720714e-02
1.301465e+03	9.691784e-02
1.302525e+03	9.660461e-02
1.303586e+03	9.626512e-02
1.304646e+03	9.589630e-02
1.305707e+03	9.549604e-02
1.306768e+03	9.506133e-02
1.307828e+03	9.459049e-02
1.308889e+03	9.408138e-02
1.309949e+03	9.353282e-02
1.311010e+03	9.294451e-02
1.312070e+03	9.231616e-02
1.313131e+03	9.165043e-02
1.314191e+03	9.094955e-02
1.315252e+03	9.022127e-02
1.316312e+03	8.947468e-02
1.317373e+03	8.872747e-02
1.318434e+03	8.800625e-02
1.319494e+03	8.735852e-02
1.320555e+03	8.686916e-02
1.321615e+03	8.670961e-02
1.322676e+03	8.726609e-02
1.323736e+03	8.958060e-02
1.324797e+03	9.729991e-02
1.325857e+03	1.294280e-01
1.326918e+03	2.528356e-01
1.327979e+03	1.558094e-01
1.329039e+03	1.002175e-01
1.330100e+03	8.726291e-02
1.331160e+03	8.255584e-02
1.332221e+03	8.030636e-02
1.333281e+03	7.902499e-02
1.334342e+03	7.819842e-02
1.335402e+03	7.761207e-02
1.336463e+03	7.716390e-02
1.337523e+03	7.679972e-02
1.338584e+03	7.648899e-02
1.339645e+03	7.621277e-02
1.340705e+03	7.595909e-02
1.341766e+03	7.571954e-02
1.342826e+03	7.548817e-02
1.343887e+03	7.526027e-02
1.344947e+03	7.503206e-02
1.346008e+03	7.480027e-02
1.347068e+03	7.456164e-02
1.348129e+03	7.431312e-02
1.349189e+03	7.405175e-02
1.350250e+03	7.377405e-02
1.351311e+03	7.347680e-02
1.352371e+03	7.315588e-02
1.353432e+03	7.280770e-02
1.354492e+03	7.242725e-02
1.355553e+03	7.201038e-02
1.356613e+03	7.155128e-02
1.357674e+03	7.104496e-02
1.358734e+03	7.048543e-02
1.359795e+03	6.986624e-02
1.360855e+03	6.918160e-02
1.361916e+03	6.842443e-02
1.362977e+03	6.758915e-02
1.364037e+03	6.666845e-02
1.365098e+03	6.565791e-02
1.366158e+03	6.455062e-02
1.367219e+03	6.334471e-02
1.368279e+03	6.203527e-02
1.369340e+03	6.062431e-02
1.370400e+03	5.911236e-02
1.371461e+03	5.750777e-02
1.372521e+03	5.582342e-02
1.373582e+03	5.408114e-02
1.374643e+03	5.232038e-02
1.375703e+03	5.060449e-02
1.376764e+03	4.905088e-02
1.377824e+03	4.788153e-02
1.378885e+03	4.758915e-02
1.379945e+03	4.946586e-02
1.381006e+03	5.806250e-02
1.382066e+03	9.779451e-02
1.383127e+03	2.152267e-01
1.384188e+03	1.081296e-01
1.385248e+03	1.200144e-01
1.386309e+03	3.255801e-01
1.387369e+03	1.928216e-01
1.388430e+03	7.098697e-02
1.389490e+03	4.347369e-02
1.390551e+03	3.371389e-02
1.391611e+03	2.915012e-02
1.392672e+03	2.663060e-02
1.393732e+03	2.507880e-02
1.394793e+03	2.404589e-02
1.395854e+03	2.331721e-02
1.396914e+03	2.277914e-02
1.397975e+03	2.236695e-02
1.399035e+03	2.204124e-02
1.400096e+03	2.177710e-02
1.401156e+03	2.155787e-02
1.402217e+03	2.137225e-02
1.403277e+03	2.121217e-02
1.404338e+03	2.107184e-02
1.405398e+03	2.094699e-02
1.406459e+03	2.083433e-02
1.407520e+03	2.073137e-02
1.408580e+03	2.063609e-02
1.409641e+03	2.054700e-02
1.410701e+03	2.046268e-02
1.411762e+03	2.038220e-02
1.412822e+03	2.030449e-02
1.413883e+03	2.022892e-02
1.414943e+03	2.015464e-02
1.416004e+03	2.008110e-02
1.417064e+03	2.000763e-02
1.418125e+03	1.993368e-02
1.419186e+03	1.985871e-02
1.420246e+03	1.978211e-02
1.421307e+03	1.970342e-02
1.422367e+03	1.962197e-02
1.423428e+03	1.953728e-02
1.424488e+03	1.944865e-02
1.425549e+03	1.935561e-02
1.426609e+03	1.925741e-02
1.427670e+03	1.915358e-02
1.428730e+03	1.904341e-02
1.429791e+03	1.892642e-02
1.430852e+03	1.880208e-02
1.431912e+03	1.867011e-02
1.432973e+03	1.853039e-02
1.434033e+03	1.838330e-02
1.435094e+03	1.822992e-02
1.436154e+03	1.807271e-02
1.437215e+03	1.791655e-02
1.438275e+03	1.777154e-02
1.439336e+03	1.765832e-02
1.440396e+03	1.762481e-02
1.441457e+03	1.779547e-02
1.442518e+03	1.858152e-02
1.443578e+03	2.191717e-02
1.444639e+03	3.864465e-02
1.445699e+03	3.049726e-02
1.446760e+03	1.985751e-02
1.447820e+03	1.881027e-02
1.448881e+03	2.560993e-02
1.449941e+03	2.215958e-02
1.451002e+03	1.559292e-02
1.452062e+03	1.375675e-02
1.453123e+03	1.276760e-02
1.454184e+03	1.200231e-02
1.455244e+03	1.130941e-02
1.456305e+03	1.064450e-02
1.457365e+03	9.994774e-03
1.458426e+03	9.367045e-03
1.459486e+03	8.782635e-03
1.460547e+03	8.286010e-03
1.461607e+03	7.963453e-03
1.462668e+03	7.993783e-03
1.463729e+03	8.796470e-03
1.464789e+03	1.154976e-02
1.465850e+03	2.063286e-02
1.466910e+03	6.066588e-02
1.467971e+03	1.752200e-01
1.469031e+03	4.944047e-02
1.470092e+03	1.648098e-02
1.471152e+03	7.821513e-03
1.472213e+03	4.464431e-03
1.473273e+03	2.830852e-03
1.474334e+03	1.914367e-03
1.475395e+03	1.348079e-03
1.476455e+03	9.730546e-04
1.477516e+03	7.114805e-04
1.478576e+03	5.216294e-04
1.479637e+03	3.794868e-04
1.480697e+03	2.704254e-04
1.481758e+03	1.851162e-04
1.482818e+03	1.173721e-04
1.483879e+03	6.295280e-05
1.484939e+03	1.886787e-05
1.485470e+03	0.000000e+00