File: KHU_project/GaN_sample29&30_XPS wide/sample29_wide4.txt
Dataset wide:45(20210119)
Dwell Time (s)	0.100000
Number of sweeps	1
Kinetic Energy(eV)	Binding Energy(eV)	Intensity(cps)	Transmission Value
286.69	1200	50140	5.684839
287.69	1199	51440	5.689028
288.69	1198	50350	5.693218
289.69	1197	49110	5.697407
290.69	1196	49230	5.701597
291.69	1195	49800	5.705786
292.69	1194	50020	5.709976
293.69	1193	50290	5.714165
294.69	1192	50690	5.718355
295.69	1191	51790	5.722545
296.69	1190	51770	5.726734
297.69	1189	52090	5.730924
298.69	1188	52720	5.735113
299.69	1187	52200	5.739303
300.69	1186	53680	5.743492
301.69	1185	54140	5.747682
302.69	1184	53300	5.751871
303.69	1183	53530	5.756061
304.69	1182	52990	5.760250
305.69	1181	54060	5.764440
306.69	1180	53470	5.768630
307.69	1179	53860	5.772819
308.69	1178	54280	5.777009
309.69	1177	53680	5.781198
310.69	1176	53500	5.785388
311.69	1175	55380	5.789577
312.69	1174	55200	5.793767
313.69	1173	55540	5.797956
314.69	1172	55780	5.802146
315.69	1171	56280	5.806335
316.69	1170	55910	5.810525
317.69	1169	56890	5.814715
318.69	1168	56760	5.818904
319.69	1167	56800	5.823094
320.69	1166	56480	5.827283
321.69	1165	57390	5.831473
322.69	1164	56480	5.835662
323.69	1163	55550	5.839852
324.69	1162	57500	5.844041
325.69	1161	56260	5.848231
326.69	1160	54730	5.852421
327.69	1159	54850	5.856610
328.69	1158	54870	5.861690
329.69	1157	54630	5.867871
330.69	1156	53670	5.874052
331.69	1155	53640	5.880232
332.69	1154	53650	5.886413
333.69	1153	54760	5.892594
334.69	1152	54740	5.898775
335.69	1151	58730	5.904956
336.69	1150	67040	5.911137
337.69	1149	92610	5.917318
338.69	1148	111470	5.923499
339.69	1147	100250	5.929680
340.69	1146	84720	5.935860
341.69	1145	73560	5.942041
342.69	1144	63020	5.948222
343.69	1143	59540	5.954403
344.69	1142	58100	5.960584
345.69	1141	57670	5.966765
346.69	1140	57560	5.972946
347.69	1139	56740	5.979127
348.69	1138	55590	5.985308
349.69	1137	55560	5.991488
350.69	1136	54110	5.997669
351.69	1135	52100	6.003850
352.69	1134	51280	6.010031
353.69	1133	50270	6.016212
354.69	1132	48010	6.022393
355.69	1131	48740	6.028574
356.69	1130	46790	6.034755
357.69	1129	45760	6.040936
358.69	1128	45510	6.047116
359.69	1127	45220	6.053297
360.69	1126	46420	6.059478
361.69	1125	48250	6.065659
362.69	1124	54330	6.071840
363.69	1123	78650	6.078021
364.69	1122	135600	6.084202
365.69	1121	162890	6.090383
366.69	1120	130070	6.096563
367.69	1119	97270	6.102744
368.69	1118	71870	6.108925
369.69	1117	51390	6.115106
370.69	1116	44160	6.121287
371.69	1115	41840	6.127468
372.69	1114	40980	6.133649
373.69	1113	41780	6.139830
374.69	1112	41260	6.146011
375.69	1111	42590	6.152191
376.69	1110	42160	6.158372
377.69	1109	42080	6.164553
378.69	1108	41020	6.170734
379.69	1107	41730	6.176915
380.69	1106	41440	6.183096
381.69	1105	41010	6.189277
382.69	1104	41030	6.195458
383.69	1103	38950	6.201639
384.69	1102	38540	6.207819
385.69	1101	39760	6.214000
386.69	1100	38330	6.220181
387.69	1099	37050	6.226362
388.69	1098	38480	6.232543
389.69	1097	38090	6.238724
390.69	1096	37510	6.244905
391.69	1095	37450	6.251086
392.69	1094	37190	6.257267
393.69	1093	37990	6.263447
394.69	1092	38170	6.269628
395.69	1091	37260	6.275809
396.69	1090	38280	6.281990
397.69	1089	38700	6.288171
398.69	1088	38060	6.294352
399.69	1087	38090	6.300533
400.69	1086	38110	6.306714
401.69	1085	38360	6.312895
402.69	1084	38240	6.319075
403.69	1083	38860	6.325256
404.69	1082	40460	6.331437
405.69	1081	39580	6.337618
406.69	1080	39300	6.343799
407.69	1079	39930	6.349980
408.69	1078	39980	6.356161
409.69	1077	39910	6.362342
410.69	1076	40100	6.368523
411.69	1075	39820	6.374703
412.69	1074	39800	6.380884
413.69	1073	39870	6.387065
414.69	1072	39920	6.393246
415.69	1071	40970	6.399427
416.69	1070	39440	6.405608
417.69	1069	40140	6.411789
418.69	1068	41290	6.417970
419.69	1067	41600	6.424151
420.69	1066	41430	6.430331
421.69	1065	40220	6.436512
422.69	1064	41040	6.442693
423.69	1063	41220	6.448874
424.69	1062	40590	6.455055
425.69	1061	42110	6.461236
426.69	1060	41760	6.467417
427.69	1059	41420	6.473598
428.69	1058	42120	6.479779
429.69	1057	41490	6.485959
430.69	1056	42210	6.492140
431.69	1055	43150	6.498321
432.69	1054	43050	6.504502
433.69	1053	43290	6.510683
434.69	1052	42790	6.516864
435.69	1051	42850	6.523045
436.69	1050	43620	6.529226
437.69	1049	44150	6.535407
438.69	1048	43870	6.541587
439.69	1047	43020	6.547768
440.69	1046	43920	6.553949
441.69	1045	43870	6.560130
442.69	1044	44550	6.566311
443.69	1043	45200	6.572492
444.69	1042	44660	6.578673
445.69	1041	44620	6.584854
446.69	1040	44200	6.591035
447.69	1039	44390	6.597215
448.69	1038	45010	6.603396
449.69	1037	45150	6.609577
450.69	1036	44220	6.615758
451.69	1035	45950	6.621939
452.69	1034	45390	6.628120
453.69	1033	45560	6.634301
454.69	1032	46350	6.640482
455.69	1031	46280	6.646663
456.69	1030	47420	6.652792
457.69	1029	46300	6.658895
458.69	1028	47290	6.664998
459.69	1027	47750	6.671101
460.69	1026	47080	6.677204
461.69	1025	47800	6.683308
462.69	1024	47940	6.689411
463.69	1023	47560	6.695514
464.69	1022	48110	6.701617
465.69	1021	49660	6.707720
466.69	1020	49320	6.713823
467.69	1019	49530	6.719926
468.69	1018	50670	6.726029
469.69	1017	50170	6.732132
470.69	1016	49430	6.738235
471.69	1015	50770	6.744339
472.69	1014	50260	6.750442
473.69	1013	50640	6.756545
474.69	1012	49700	6.762648
475.69	1011	49020	6.768751
476.69	1010	49280	6.774854
477.69	1009	50320	6.780957
478.69	1008	52490	6.787060
479.69	1007	53540	6.793163
480.69	1006	53910	6.799266
481.69	1005	54150	6.805370
482.69	1004	55400	6.811473
483.69	1003	56160	6.817576
484.69	1002	56990	6.823679
485.69	1001	57040	6.829782
486.69	1000	55560	6.835885
487.69	999	53940	6.841988
488.69	998	52970	6.848091
489.69	997	51780	6.854194
490.69	996	51170	6.860297
491.69	995	51600	6.866401
492.69	994	50570	6.872504
493.69	993	49450	6.878607
494.69	992	48910	6.884710
495.69	991	48280	6.890813
496.69	990	47990	6.896916
497.69	989	49550	6.903019
498.69	988	50370	6.909122
499.69	987	51990	6.915225
500.69	986	54010	6.921328
501.69	985	58420	6.927432
502.69	984	62330	6.933535
503.69	983	66760	6.939638
504.69	982	71150	6.945741
505.69	981	72670	6.951844
506.69	980	69230	6.957947
507.69	979	64960	6.964050
508.69	978	61740	6.970153
509.69	977	58420	6.976256
510.69	976	54780	6.982359
511.69	975	51740	6.988463
512.69	974	50040	6.994566
513.69	973	48390	7.000669
514.69	972	45480	7.006772
515.69	971	44040	7.012875
516.69	970	42580	7.018978
517.69	969	40350	7.025081
518.69	968	38900	7.031184
519.69	967	38830	7.037287
520.69	966	37950	7.043390
521.69	965	37250	7.049494
522.69	964	38380	7.055597
523.69	963	38360	7.061700
524.69	962	38060	7.067803
525.69	961	38780	7.073906
526.69	960	38570	7.080009
527.69	959	38380	7.086112
528.69	958	38280	7.092215
529.69	957	39290	7.098318
530.69	956	39680	7.104421
531.69	955	39110	7.110525
532.69	954	38860	7.116628
533.69	953	40000	7.122731
534.69	952	39210	7.128834
535.69	951	38830	7.134937
536.69	950	38420	7.141040
537.69	949	38810	7.147143
538.69	948	39460	7.153246
539.69	947	39710	7.159349
540.69	946	39460	7.165452
541.69	945	39590	7.171556
542.69	944	39000	7.177659
543.69	943	40880	7.183762
544.69	942	38990	7.189865
545.69	941	39720	7.195968
546.69	940	41090	7.202071
547.69	939	41000	7.208174
548.69	938	41060	7.214277
549.69	937	40320	7.220380
550.69	936	41400	7.226483
551.69	935	41200	7.232587
552.69	934	40910	7.238690
553.69	933	40640	7.244793
554.69	932	41070	7.250896
555.69	931	42070	7.256999
556.69	930	40700	7.263102
557.69	929	40690	7.269205
558.69	928	41550	7.275308
559.69	927	40510	7.281411
560.69	926	40370	7.287514
561.69	925	41140	7.293618
562.69	924	41540	7.299721
563.69	923	41510	7.305824
564.69	922	42070	7.311927
565.69	921	41740	7.318030
566.69	920	41660	7.324133
567.69	919	42800	7.330236
568.69	918	43350	7.336339
569.69	917	41710	7.342442
570.69	916	42260	7.348545
571.69	915	42070	7.354649
572.69	914	43110	7.360752
573.69	913	41770	7.366855
574.69	912	42560	7.372958
575.69	911	43040	7.379061
576.69	910	42660	7.385164
577.69	909	42990	7.391267
578.69	908	43270	7.397370
579.69	907	42780	7.403473
580.69	906	42920	7.409576
581.69	905	42680	7.415680
582.69	904	42620	7.421783
583.69	903	44360	7.427886
584.69	902	43830	7.433989
585.69	901	43910	7.440092
586.69	900	43920	7.446195
587.69	899	44710	7.452298
588.69	898	44180	7.458401
589.69	897	44900	7.464504
590.69	896	44760	7.470607
591.69	895	44140	7.476711
592.69	894	44390	7.482814
593.69	893	44190	7.488917
594.69	892	45180	7.495020
595.69	891	44810	7.501123
596.69	890	44580	7.507226
597.69	889	44990	7.513329
598.69	888	44820	7.519432
599.69	887	45410	7.525535
600.69	886	44490	7.531639
601.69	885	44740	7.537742
602.69	884	45280	7.543845
603.69	883	45680	7.549948
604.69	882	46360	7.556051
605.69	881	46130	7.562154
606.69	880	45690	7.568257
607.69	879	46250	7.574360
608.69	878	45530	7.580463
609.69	877	46620	7.586566
610.69	876	47270	7.592670
611.69	875	45990	7.598773
612.69	874	46380	7.604876
613.69	873	47110	7.610979
614.69	872	46670	7.617082
615.69	871	46880	7.623185
616.69	870	48310	7.629288
617.69	869	47660	7.635391
618.69	868	48030	7.641494
619.69	867	47050	7.647597
620.69	866	47770	7.653701
621.69	865	48370	7.659804
622.69	864	48410	7.665907
623.69	863	48290	7.672010
624.69	862	48270	7.678113
625.69	861	48470	7.684216
626.69	860	49420	7.690319
627.69	859	49480	7.696422
628.69	858	48830	7.702525
629.69	857	48260	7.708628
630.69	856	48370	7.714732
631.69	855	48950	7.720835
632.69	854	50040	7.726938
633.69	853	49390	7.733041
634.69	852	49770	7.739144
635.69	851	49380	7.745247
636.69	850	49130	7.751350
637.69	849	48190	7.757453
638.69	848	48970	7.763556
639.69	847	49850	7.769659
640.69	846	50460	7.775763
641.69	845	48670	7.781866
642.69	844	49570	7.787969
643.69	843	50660	7.794072
644.69	842	50750	7.800175
645.69	841	51300	7.806278
646.69	840	50560	7.812381
647.69	839	51130	7.818484
648.69	838	50890	7.824587
649.69	837	51030	7.830690
650.69	836	50580	7.836794
651.69	835	51350	7.842897
652.69	834	51450	7.849000
653.69	833	51400	7.855103
654.69	832	51650	7.861206
655.69	831	50890	7.867309
656.69	830	51340	7.873412
657.69	829	52050	7.879515
658.69	828	51380	7.885618
659.69	827	52110	7.891721
660.69	826	51190	7.897825
661.69	825	51970	7.903928
662.69	824	52970	7.910031
663.69	823	53000	7.916134
664.69	822	53500	7.922237
665.69	821	52480	7.926931
666.69	820	51930	7.931169
667.69	819	53000	7.935407
668.69	818	53710	7.939645
669.69	817	53700	7.943883
670.69	816	53520	7.948121
671.69	815	53790	7.952358
672.69	814	54450	7.956596
673.69	813	54130	7.960834
674.69	812	53370	7.965072
675.69	811	53540	7.969310
676.69	810	54460	7.973548
677.69	809	54480	7.977786
678.69	808	53440	7.982024
679.69	807	54230	7.986262
680.69	806	54420	7.990500
681.69	805	54630	7.994738
682.69	804	54410	7.998976
683.69	803	55700	8.003214
684.69	802	55490	8.007451
685.69	801	54960	8.011689
686.69	800	54010	8.015927
687.69	799	55300	8.020165
688.69	798	55630	8.024403
689.69	797	55600	8.028641
690.69	796	55360	8.032879
691.69	795	54500	8.037117
692.69	794	55290	8.041355
693.69	793	56030	8.045593
694.69	792	56560	8.049831
695.69	791	56270	8.054069
696.69	790	56620	8.058307
697.69	789	55820	8.062544
698.69	788	55690	8.066782
699.69	787	56410	8.071020
700.69	786	56740	8.075258
701.69	785	57550	8.079496
702.69	784	57840	8.083734
703.69	783	56290	8.087972
704.69	782	55370	8.092210
705.69	781	57340	8.096448
706.69	780	57620	8.100686
707.69	779	57510	8.104924
708.69	778	56470	8.109162
709.69	777	57040	8.113400
710.69	776	58070	8.117637
711.69	775	58000	8.121875
712.69	774	57820	8.126113
713.69	773	57850	8.130351
714.69	772	58280	8.134589
715.69	771	58400	8.138827
716.69	770	58010	8.143065
717.69	769	59170	8.147303
718.69	768	58740	8.151541
719.69	767	58330	8.155779
720.69	766	58060	8.160017
721.69	765	58080	8.164255
722.69	764	59060	8.168493
723.69	763	60010	8.172730
724.69	762	60210	8.176968
725.69	761	59970	8.181206
726.69	760	59860	8.185444
727.69	759	60470	8.189682
728.69	758	60440	8.193920
729.69	757	61120	8.198158
730.69	756	60230	8.202396
731.69	755	59680	8.206634
732.69	754	60370	8.210872
733.69	753	60430	8.215110
734.69	752	61460	8.219348
735.69	751	60660	8.223586
736.69	750	61300	8.227823
737.69	749	61720	8.232061
738.69	748	60700	8.236299
739.69	747	60150	8.240537
740.69	746	60510	8.244775
741.69	745	62280	8.249013
742.69	744	61690	8.253251
743.69	743	62000	8.257489
744.69	742	62600	8.261727
745.69	741	62150	8.265965
746.69	740	62200	8.270203
747.69	739	62630	8.274441
748.69	738	63450	8.278679
749.69	737	63760	8.282917
750.69	736	62360	8.287154
751.69	735	63140	8.291392
752.69	734	63050	8.295630
753.69	733	63470	8.299868
754.69	732	64700	8.304106
755.69	731	63800	8.308344
756.69	730	64120	8.312582
757.69	729	63390	8.316820
758.69	728	64300	8.321058
759.69	727	64910	8.325296
760.69	726	64720	8.329534
761.69	725	64370	8.333772
762.69	724	64660	8.338010
763.69	723	64670	8.342247
764.69	722	65150	8.346485
765.69	721	65590	8.350723
766.69	720	67120	8.354961
767.69	719	65660	8.359199
768.69	718	64510	8.363437
769.69	717	66090	8.367675
770.69	716	66790	8.371913
771.69	715	66650	8.376151
772.69	714	66960	8.380389
773.69	713	67290	8.384627
774.69	712	66990	8.388865
775.69	711	67500	8.393103
776.69	710	66920	8.397340
777.69	709	66840	8.401578
778.69	708	66460	8.405816
779.69	707	67940	8.410054
780.69	706	67960	8.414292
781.69	705	67850	8.418530
782.69	704	68290	8.422768
783.69	703	68520	8.427006
784.69	702	68460	8.431244
785.69	701	68780	8.435482
786.69	700	69360	8.439720
787.69	699	68640	8.443958
788.69	698	68730	8.448196
789.69	697	68330	8.452433
790.69	696	69590	8.456671
791.69	695	69550	8.460909
792.69	694	70090	8.465147
793.69	693	68820	8.469385
794.69	692	71160	8.473623
795.69	691	71110	8.477861
796.69	690	70990	8.482099
797.69	689	70890	8.486337
798.69	688	72090	8.490575
799.69	687	71770	8.494813
800.69	686	71310	8.499051
801.69	685	71660	8.503289
802.69	684	71830	8.507526
803.69	683	72740	8.511764
804.69	682	73630	8.516002
805.69	681	72800	8.520240
806.69	680	74210	8.524478
807.69	679	73100	8.528716
808.69	678	72490	8.532954
809.69	677	71750	8.537192
810.69	676	73350	8.541430
811.69	675	73940	8.545668
812.69	674	75170	8.549906
813.69	673	75010	8.554144
814.69	672	74520	8.558382
815.69	671	74730	8.562620
816.69	670	75870	8.566857
817.69	669	74480	8.571095
818.69	668	76270	8.575333
819.69	667	75760	8.579571
820.69	666	76220	8.583809
821.69	665	76350	8.588047
822.69	664	76900	8.592285
823.69	663	77830	8.596523
824.69	662	78980	8.600761
825.69	661	77150	8.604999
826.69	660	75860	8.609237
827.69	659	77180	8.613475
828.69	658	77260	8.617713
829.69	657	78460	8.621950
830.69	656	78550	8.626188
831.69	655	78220	8.630426
832.69	654	79140	8.634664
833.69	653	76750	8.638902
834.69	652	77500	8.643140
835.69	651	79180	8.647378
836.69	650	81440	8.651616
837.69	649	81770	8.655854
838.69	648	81940	8.660092
839.69	647	80820	8.664330
840.69	646	79940	8.668568
841.69	645	80740	8.672806
842.69	644	81340	8.677043
843.69	643	80080	8.681281
844.69	642	79160	8.685519
845.69	641	79360	8.689757
846.69	640	80900	8.693995
847.69	639	81440	8.698233
848.69	638	81680	8.702471
849.69	637	82750	8.706709
850.69	636	83390	8.710947
851.69	635	81170	8.715185
852.69	634	83240	8.719423
853.69	633	83770	8.723661
854.69	632	81500	8.727899
855.69	631	82280	8.732136
856.69	630	82060	8.736374
857.69	629	83040	8.740612
858.69	628	83740	8.744850
859.69	627	83610	8.749088
860.69	626	82950	8.753326
861.69	625	83410	8.757564
862.69	624	83660	8.761802
863.69	623	83830	8.766040
864.69	622	83670	8.770278
865.69	621	83590	8.774516
866.69	620	86130	8.778754
867.69	619	85670	8.782992
868.69	618	87200	8.787229
869.69	617	85630	8.791467
870.69	616	86020	8.795705
871.69	615	85920	8.799943
872.69	614	85510	8.804181
873.69	613	86090	8.808419
874.69	612	86870	8.812657
875.69	611	87730	8.816895
876.69	610	87310	8.821133
877.69	609	87580	8.825371
878.69	608	90120	8.829609
879.69	607	90550	8.833847
880.69	606	91090	8.838085
881.69	605	93590	8.842323
882.69	604	94120	8.846560
883.69	603	94140	8.850798
884.69	602	91430	8.855036
885.69	601	91500	8.859274
886.69	600	91770	8.863512
887.69	599	91890	8.866119
888.69	598	92660	8.868583
889.69	597	94500	8.871047
890.69	596	92800	8.873510
891.69	595	90660	8.875974
892.69	594	87370	8.878437
893.69	593	86720	8.880901
894.69	592	84560	8.883364
895.69	591	82450	8.885828
896.69	590	82540	8.888291
897.69	589	80970	8.890755
898.69	588	81380	8.893219
899.69	587	83140	8.895682
900.69	586	80610	8.898146
901.69	585	81890	8.900609
902.69	584	81540	8.903073
903.69	583	82740	8.905536
904.69	582	84510	8.908000
905.69	581	84250	8.910464
906.69	580	84420	8.912927
907.69	579	85910	8.915391
908.69	578	84840	8.917854
909.69	577	83280	8.920318
910.69	576	82990	8.922781
911.69	575	80600	8.925245
912.69	574	81420	8.927708
913.69	573	81520	8.930172
914.69	572	82290	8.932636
915.69	571	82260	8.935099
916.69	570	81880	8.937563
917.69	569	79680	8.940026
918.69	568	80880	8.942490
919.69	567	80790	8.944953
920.69	566	80280	8.947417
921.69	565	81390	8.949880
922.69	564	79980	8.952344
923.69	563	82260	8.954808
924.69	562	84910	8.957271
925.69	561	85830	8.959735
926.69	560	86220	8.962198
927.69	559	87590	8.964662
928.69	558	86710	8.967125
929.69	557	84820	8.969589
930.69	556	83110	8.972053
931.69	555	79990	8.974516
932.69	554	78160	8.976980
933.69	553	76000	8.979443
934.69	552	75340	8.981907
935.69	551	73410	8.984370
936.69	550	73300	8.986834
937.69	549	73070	8.989297
938.69	548	70860	8.991761
939.69	547	69580	8.994225
940.69	546	68220	8.996688
941.69	545	68540	8.999152
942.69	544	68300	9.001615
943.69	543	67250	9.004079
944.69	542	67690	9.006542
945.69	541	68520	9.009006
946.69	540	69370	9.011470
947.69	539	72730	9.013933
948.69	538	86470	9.016397
949.69	537	123890	9.018860
950.69	536	193720	9.021324
951.69	535	220800	9.023787
952.69	534	163330	9.026251
953.69	533	102580	9.028714
954.69	532	77420	9.031178
955.69	531	67590	9.033642
956.69	530	66600	9.036105
957.69	529	65440	9.038569
958.69	528	66400	9.041032
959.69	527	66130	9.043496
960.69	526	67880	9.045959
961.69	525	72060	9.048423
962.69	524	75570	9.050886
963.69	523	81000	9.053350
964.69	522	84480	9.055814
965.69	521	82960	9.058277
966.69	520	78550	9.060741
967.69	519	72970	9.063204
968.69	518	69990	9.065668
969.69	517	67970	9.068131
970.69	516	67340	9.070595
971.69	515	68630	9.073059
972.69	514	71660	9.075522
973.69	513	73120	9.077986
974.69	512	74260	9.080449
975.69	511	72810	9.082913
976.69	510	69080	9.085376
977.69	509	65190	9.087840
978.69	508	61790	9.090303
979.69	507	58740	9.092767
980.69	506	55840	9.095231
981.69	505	55320	9.097694
982.69	504	53020	9.100158
983.69	503	51690	9.102621
984.69	502	50840	9.105085
985.69	501	51170	9.107548
986.69	500	52220	9.110012
987.69	499	53480	9.112476
988.69	498	56550	9.114939
989.69	497	58630	9.117403
990.69	496	61260	9.119866
991.69	495	63500	9.122330
992.69	494	62740	9.124793
993.69	493	60710	9.127257
994.69	492	57360	9.129720
995.69	491	54610	9.132184
996.69	490	54060	9.134648
997.69	489	53950	9.137111
998.69	488	54700	9.139575
999.69	487	55030	9.142038
1000.69	486	53830	9.144502
1001.69	485	52430	9.146965
1002.69	484	51130	9.149429
1003.69	483	49530	9.151892
1004.69	482	49180	9.154356
1005.69	481	48220	9.156820
1006.69	480	46520	9.159283
1007.69	479	46060	9.161747
1008.69	478	46560	9.164210
1009.69	477	46140	9.166674
1010.69	476	46330	9.169137
1011.69	475	46450	9.171601
1012.69	474	46060	9.174065
1013.69	473	47640	9.176528
1014.69	472	47710	9.178992
1015.69	471	48060	9.181455
1016.69	470	47490	9.183919
1017.69	469	47510	9.186382
1018.69	468	47850	9.188846
1019.69	467	48520	9.191309
1020.69	466	48660	9.193773
1021.69	465	50070	9.196237
1022.69	464	50330	9.198700
1023.69	463	51840	9.201164
1024.69	462	49620	9.203627
1025.69	461	50300	9.206091
1026.69	460	51130	9.208554
1027.69	459	51740	9.211018
1028.69	458	50700	9.213482
1029.69	457	51270	9.215945
1030.69	456	52540	9.218409
1031.69	455	53640	9.220872
1032.69	454	54230	9.223336
1033.69	453	54580	9.225799
1034.69	452	55650	9.228263
1035.69	451	56220	9.231356
1036.69	450	56740	9.234726
1037.69	449	58020	9.238096
1038.69	448	59050	9.241466
1039.69	447	58570	9.244836
1040.69	446	59050	9.248206
1041.69	445	59140	9.251576
1042.69	444	58420	9.254946
1043.69	443	58170	9.258316
1044.69	442	56480	9.261686
1045.69	441	55870	9.265056
1046.69	440	55010	9.268426
1047.69	439	54830	9.271796
1048.69	438	55520	9.275166
1049.69	437	55960	9.278536
1050.69	436	55900	9.281906
1051.69	435	57580	9.285276
1052.69	434	58410	9.288646
1053.69	433	59110	9.292016
1054.69	432	60050	9.295386
1055.69	431	63250	9.298756
1056.69	430	72100	9.302126
1057.69	429	91420	9.305496
1058.69	428	116620	9.308866
1059.69	427	126240	9.312237
1060.69	426	117070	9.315607
1061.69	425	99790	9.318977
1062.69	424	88670	9.322347
1063.69	423	75310	9.325717
1064.69	422	62860	9.329087
1065.69	421	51880	9.332457
1066.69	420	45060	9.335827
1067.69	419	40180	9.339197
1068.69	418	37590	9.342567
1069.69	417	36700	9.345937
1070.69	416	34560	9.349307
1071.69	415	32690	9.352677
1072.69	414	31350	9.356047
1073.69	413	30490	9.359417
1074.69	412	29670	9.362787
1075.69	411	29460	9.366157
1076.69	410	29560	9.369527
1077.69	409	29400	9.372897
1078.69	408	31330	9.376267
1079.69	407	31230	9.379637
1080.69	406	32240	9.383007
1081.69	405	30890	9.386377
1082.69	404	36070	9.389747
1083.69	403	55070	9.393117
1084.69	402	82220	9.396487
1085.69	401	90060	9.399857
1086.69	400	82270	9.403227
1087.69	399	61870	9.406597
1088.69	398	47610	9.409967
1089.69	397	38770	9.413337
1090.69	396	31420	9.416707
1091.69	395	24420	9.420077
1092.69	394	20160	9.423447
1093.69	393	17910	9.426817
1094.69	392	16860	9.430187
1095.69	391	15700	9.433557
1096.69	390	15550	9.436927
1097.69	389	15580	9.440297
1098.69	388	14920	9.443667
1099.69	387	15130	9.447037
1100.69	386	15010	9.450407
1101.69	385	14990	9.453777
1102.69	384	15120	9.457147
1103.69	383	14520	9.460517
1104.69	382	15120	9.463887
1105.69	381	14770	9.467257
1106.69	380	14510	9.470627
1107.69	379	14580	9.473997
1108.69	378	14670	9.477367
1109.69	377	14930	9.480737
1110.69	376	14680	9.484107
1111.69	375	14580	9.487477
1112.69	374	15190	9.490847
1113.69	373	15770	9.494217
1114.69	372	15640	9.497587
1115.69	371	15360	9.500957
1116.69	370	14230	9.504327
1117.69	369	14630	9.507697
1118.69	368	14280	9.511067
1119.69	367	13870	9.514437
1120.69	366	13550	9.517807
1121.69	365	14310	9.521177
1122.69	364	14310	9.524547
1123.69	363	14330	9.527917
1124.69	362	14490	9.531287
1125.69	361	14150	9.534657
1126.69	360	14220	9.538027
1127.69	359	14450	9.541397
1128.69	358	14260	9.544767
1129.69	357	14050	9.548137
1130.69	356	14190	9.551507
1131.69	355	14420	9.554877
1132.69	354	14650	9.558247
1133.69	353	14690	9.561617
1134.69	352	14590	9.564987
1135.69	351	14610	9.568357
1136.69	350	14540	9.571727
1137.69	349	14370	9.575097
1138.69	348	14240	9.578467
1139.69	347	14060	9.581837
1140.69	346	13660	9.585207
1141.69	345	13790	9.588577
1142.69	344	13520	9.591947
1143.69	343	13740	9.595317
1144.69	342	14290	9.598687
1145.69	341	14200	9.602057
1146.69	340	14740	9.605427
1147.69	339	14960	9.608797
1148.69	338	14060	9.612167
1149.69	337	14300	9.615537
1150.69	336	14510	9.618907
1151.69	335	14210	9.622277
1152.69	334	14420	9.625647
1153.69	333	13520	9.629017
1154.69	332	14010	9.632387
1155.69	331	14250	9.635757
1156.69	330	14870	9.639127
1157.69	329	14480	9.642497
1158.69	328	14590	9.645867
1159.69	327	14690	9.649237
1160.69	326	14680	9.652607
1161.69	325	14550	9.655977
1162.69	324	14500	9.659347
1163.69	323	14270	9.662717
1164.69	322	14430	9.666087
1165.69	321	14620	9.669457
1166.69	320	14420	9.672827
1167.69	319	14450	9.676197
1168.69	318	14250	9.679567
1169.69	317	14570	9.682937
1170.69	316	14870	9.686307
1171.69	315	14130	9.689677
1172.69	314	14590	9.693047
1173.69	313	14900	9.696417
1174.69	312	14950	9.699787
1175.69	311	14700	9.703157
1176.69	310	15130	9.706527
1177.69	309	15140	9.709897
1178.69	308	14760	9.713267
1179.69	307	15010	9.716637
1180.69	306	15270	9.720007
1181.69	305	14890	9.723377
1182.69	304	14780	9.726747
1183.69	303	15130	9.730117
1184.69	302	15070	9.733487
1185.69	301	14750	9.736857
1186.69	300	14200	9.740227
1187.69	299	14470	9.743597
1188.69	298	14430	9.746967
1189.69	297	15000	9.750337
1190.69	296	15380	9.753707
1191.69	295	15450	9.757077
1192.69	294	15830	9.760447
1193.69	293	16470	9.763817
1194.69	292	17090	9.767187
1195.69	291	19030	9.770557
1196.69	290	21000	9.773927
1197.69	289	19540	9.777297
1198.69	288	18490	9.780667
1199.69	287	16190	9.784037
1200.69	286	15870	9.787407
1201.69	285	15400	9.790777
1202.69	284	14840	9.794147
1203.69	283	14780	9.797517
1204.69	282	14740	9.800887
1205.69	281	14370	9.804257
1206.69	280	14770	9.807627
1207.69	279	14840	9.810997
1208.69	278	14700	9.814367
1209.69	277	15210	9.817737
1210.69	276	14710	9.821107
1211.69	275	15260	9.824477
1212.69	274	15330	9.827847
1213.69	273	15120	9.831217
1214.69	272	15440	9.834587
1215.69	271	15100	9.837957
1216.69	270	15190	9.841327
1217.69	269	15320	9.844697
1218.69	268	15670	9.848067
1219.69	267	15360	9.851437
1220.69	266	15450	9.854807
1221.69	265	15040	9.858177
1222.69	264	16010	9.861547
1223.69	263	15680	9.864917
1224.69	262	15730	9.868287
1225.69	261	15570	9.871657
1226.69	260	15180	9.875027
1227.69	259	16020	9.878397
1228.69	258	15580	9.881767
1229.69	257	15560	9.885137
1230.69	256	16320	9.888507
1231.69	255	16230	9.891877
1232.69	254	16120	9.895247
1233.69	253	15330	9.898617
1234.69	252	15140	9.901987
1235.69	251	15170	9.905357
1236.69	250	16390	9.909562
1237.69	249	15930	9.914044
1238.69	248	16040	9.918526
1239.69	247	16460	9.923009
1240.69	246	16610	9.927491
1241.69	245	16470	9.931974
1242.69	244	16070	9.936456
1243.69	243	16280	9.940939
1244.69	242	16380	9.945421
1245.69	241	16680	9.949903
1246.69	240	16550	9.954386
1247.69	239	16580	9.958868
1248.69	238	16640	9.963351
1249.69	237	16490	9.967833
1250.69	236	16830	9.972316
1251.69	235	16820	9.976798
1252.69	234	16490	9.981280
1253.69	233	16860	9.985763
1254.69	232	16070	9.990245
1255.69	231	16620	9.994728
1256.69	230	16380	9.999210
1257.69	229	16710	10.0037
1258.69	228	16020	10.0082
1259.69	227	16870	10.0127
1260.69	226	17020	10.0171
1261.69	225	16810	10.0216
1262.69	224	17070	10.0261
1263.69	223	16630	10.0306
1264.69	222	16020	10.0351
1265.69	221	16260	10.0396
1266.69	220	16580	10.044
1267.69	219	17210	10.0485
1268.69	218	16790	10.053
1269.69	217	17080	10.0575
1270.69	216	16280	10.062
1271.69	215	16640	10.0664
1272.69	214	16890	10.0709
1273.69	213	16970	10.0754
1274.69	212	17180	10.0799
1275.69	211	17540	10.0844
1276.69	210	17420	10.0889
1277.69	209	16950	10.0933
1278.69	208	16940	10.0978
1279.69	207	17440	10.1023
1280.69	206	17190	10.1068
1281.69	205	18700	10.1113
1282.69	204	17910	10.1158
1283.69	203	17670	10.1202
1284.69	202	18020	10.1247
1285.69	201	18420	10.1292
1286.69	200	18160	10.1337
1287.69	199	17410	10.1382
1288.69	198	17790	10.1426
1289.69	197	17770	10.1471
1290.69	196	18010	10.1516
1291.69	195	17720	10.1561
1292.69	194	18610	10.1606
1293.69	193	18410	10.1651
1294.69	192	18180	10.1695
1295.69	191	18240	10.174
1296.69	190	18190	10.1785
1297.69	189	18500	10.183
1298.69	188	19270	10.1875
1299.69	187	19790	10.192
1300.69	186	19520	10.1964
1301.69	185	19190	10.2009
1302.69	184	19800	10.2054
1303.69	183	19960	10.2099
1304.69	182	19280	10.2144
1305.69	181	19370	10.2188
1306.69	180	19230	10.2233
1307.69	179	19400	10.2278
1308.69	178	18990	10.2323
1309.69	177	18820	10.2368
1310.69	176	19300	10.2413
1311.69	175	18750	10.2457
1312.69	174	18510	10.2502
1313.69	173	18330	10.2547
1314.69	172	18680	10.2592
1315.69	171	19760	10.2637
1316.69	170	20160	10.2682
1317.69	169	20170	10.2726
1318.69	168	22120	10.2771
1319.69	167	26890	10.2816
1320.69	166	31840	10.2861
1321.69	165	33730	10.2906
1322.69	164	29540	10.2951
1323.69	163	24730	10.2995
1324.69	162	22140	10.304
1325.69	161	20040	10.3085
1326.69	160	19760	10.313
1327.69	159	21320	10.3175
1328.69	158	21260	10.3219
1329.69	157	21590	10.3265
1330.69	156	21290	10.3312
1331.69	155	19410	10.3359
1332.69	154	19480	10.3407
1333.69	153	19060	10.3454
1334.69	152	18880	10.3501
1335.69	151	20000	10.3549
1336.69	150	20080	10.3596
1337.69	149	20820	10.3643
1338.69	148	20890	10.3691
1339.69	147	20550	10.3738
1340.69	146	20210	10.3785
1341.69	145	20150	10.3833
1342.69	144	20440	10.388
1343.69	143	19240	10.3927
1344.69	142	19010	10.3974
1345.69	141	18850	10.4022
1346.69	140	18950	10.4069
1347.69	139	19220	10.4116
1348.69	138	18930	10.4164
1349.69	137	18510	10.4211
1350.69	136	18740	10.4258
1351.69	135	18940	10.4306
1352.69	134	18500	10.4353
1353.69	133	18050	10.44
1354.69	132	17890	10.4447
1355.69	131	18290	10.4495
1356.69	130	18670	10.4542
1357.69	129	18880	10.4589
1358.69	128	18840	10.4637
1359.69	127	19720	10.4684
1360.69	126	25200	10.4731
1361.69	125	38800	10.4779
1362.69	124	50110	10.4826
1363.69	123	43890	10.4873
1364.69	122	29710	10.4921
1365.69	121	19660	10.4968
1366.69	120	16060	10.5015
1367.69	119	14640	10.5062
1368.69	118	14870	10.511
1369.69	117	15700	10.5157
1370.69	116	18940	10.5204
1371.69	115	24520	10.5252
1372.69	114	28970	10.5299
1373.69	113	30970	10.5346
1374.69	112	35640	10.5394
1375.69	111	40920	10.5441
1376.69	110	41350	10.5488
1377.69	109	35860	10.5535
1378.69	108	27130	10.5583
1379.69	107	21920	10.563
1380.69	106	17420	10.5677
1381.69	105	14370	10.5725
1382.69	104	11670	10.5772
1383.69	103	10680	10.5819
1384.69	102	10260	10.5867
1385.69	101	9570	10.5914
1386.69	100	9340	10.5961
1387.69	99	9190	10.6009
1388.69	98	8500	10.6056
1389.69	97	7790	10.6103
1390.69	96	8130	10.615
1391.69	95	7200	10.6198
1392.69	94	7160	10.6245
1393.69	93	6290	10.6292
1394.69	92	6310	10.634
1395.69	91	6130	10.6387
1396.69	90	5740	10.6434
1397.69	89	5470	10.6482
1398.69	88	5270	10.6529
1399.69	87	5040	10.6576
1400.69	86	4730	10.6623
1401.69	85	5000	10.6671
1402.69	84	5200	10.6718
1403.69	83	5530	10.6765
1404.69	82	6470	10.6813
1405.69	81	11550	10.686
1406.69	80	27350	10.6907
1407.69	79	35940	10.6955
1408.69	78	25870	10.7002
1409.69	77	12480	10.7049
1410.69	76	6890	10.7097
1411.69	75	5030	10.7144
1412.69	74	4840	10.7191
1413.69	73	4530	10.7238
1414.69	72	4570	10.7286
1415.69	71	4810	10.7333
1416.69	70	4440	10.738
1417.69	69	4640	10.7428
1418.69	68	4650	10.7475
1419.69	67	4560	10.7522
1420.69	66	4630	10.757
1421.69	65	4540	10.7617
1422.69	64	4670	10.7664
1423.69	63	4810	10.7712
1424.69	62	4980	10.7759
1425.69	61	4980	10.7806
1426.69	60	4810	10.7853
1427.69	59	5420	10.7901
1428.69	58	4900	10.7948
1429.69	57	5270	10.7995
1430.69	56	5440	10.8043
1431.69	55	5490	10.809
1432.69	54	5630	10.8137
1433.69	53	5420	10.8185
1434.69	52	5440	10.8232
1435.69	51	5830	10.8279
1436.69	50	5810	10.8326
1437.69	49	5780	10.8374
1438.69	48	6210	10.8421
1439.69	47	6070	10.8468
1440.69	46	6280	10.8516
1441.69	45	6310	10.8563
1442.69	44	5990	10.861
1443.69	43	5750	10.8658
1444.69	42	5290	10.8705
1445.69	41	5010	10.8752
1446.69	40	4580	10.88
1447.69	39	4270	10.8847
1448.69	38	4180	10.8894
1449.69	37	4100	10.8941
1450.69	36	3860	10.8989
1451.69	35	3470	10.9036
1452.69	34	4110	10.9083
1453.69	33	3960	10.9131
1454.69	32	3950	10.9178
1455.69	31	4630	10.9225
1456.69	30	6250	10.9273
1457.69	29	8420	10.932
1458.69	28	10140	10.9367
1459.69	27	14950	10.9414
1460.69	26	26380	10.9462
1461.69	25	30190	10.9509
1462.69	24	20690	10.9556
1463.69	23	11290	10.9559
1464.69	22	5510	10.9559
1465.69	21	2990	10.9559
1466.69	20	1640	10.9559
1467.69	19	1390	10.9559
1468.69	18	1160	10.9559
1469.69	17	1290	10.9559
1470.69	16	1980	10.9559
1471.69	15	2980	10.9559
1472.69	14	3340	10.9559
1473.69	13	3030	10.9559
1474.69	12	3260	10.9559
1475.69	11	3130	10.9559
1476.69	10	3070	10.9559
1477.69	9.000000	1890	10.9559
1478.69	8.000000	1120	10.9559
1479.69	7.000000	460	10.9559
1480.69	6.000000	180	10.9559
1481.69	5.000000	80	10.9559
1482.69	4.000000	40	10.9559
1483.69	3.000000	70	10.9559
1484.69	2.000000	10	10.9559
1485.69	1.000000	10	10.9559
1486.69	0.000000	20	10.9559
1487.69	-1.000000	20	10.9559
1488.69	-2.000000	10	10.9559
1489.69	-3.000000	20	10.9559
1490.69	-4.000000	10	10.9559
1491.69	-5.000000	10	10.9559